condition,task,stim_file,type,shape,trials.thisRepN,trials.thisTrialN,trials.thisN,trials.thisIndex,trials_2.thisRepN,trials_2.thisTrialN,trials_2.thisN,trials_2.thisIndex,trials_3.thisRepN,trials_3.thisTrialN,trials_3.thisN,trials_3.thisIndex,text.started,text.stopped,key_resp.keys,key_resp.rt,key_resp.started,key_resp.stopped,image.started,image.stopped,text2.started,text2.stopped,key_resp_2.keys,key_resp_2.rt,key_resp_2.started,key_resp_2.stopped,text_3.started,text_3.stopped,key_resp_4.keys,key_resp_4.rt,key_resp_4.started,key_resp_4.stopped,text_2.started,text_2.stopped,image_2.started,image_2.stopped,key_resp_3.keys,key_resp_3.started,key_resp_3.stopped,key_resp_3.rt,text_6.started,text_6.stopped,key_resp_6.keys,key_resp_6.rt,key_resp_6.started,key_resp_6.stopped,text_4.started,text_4.stopped,image_3.started,image_3.stopped,text_5.started,text_5.stopped,key_resp_5.keys,key_resp_5.rt,key_resp_5.started,key_resp_5.stopped,participant,session,date,expName,psychopyVersion,frameRate,
,,,,,,,,,,,,,,,,,12.548039030982181,None,space,23.0608246329939,12.548039030982181,None,,,,,,,,,,,,,,,,,,,,,,,,,,,,,,,,,,,,,,,4,001,2021_Dec_01_1426,psychophysics_project,2021.2.3,59.81416098635664,
salient,go,1gov1.png,,,0,0,0,6,,,,,,,,,,,,,,,36.674174273968674,None,35.70489325898234,36.707474480965175,space,0.7342628199839965,36.674174273968674,None,,,,,,,,,,,,,,,,,,,,,,,,,,,,,,,4,001,2021_Dec_01_1426,psychophysics_project,2021.2.3,59.81416098635664,
nonsalient,go,1go.png,,,0,1,1,0,,,,,,,,,,,,,,,38.42887794401031,None,37.44415916095022,38.44563438592013,space,0.6093566800700501,38.42887794401031,None,,,,,,,,,,,,,,,,,,,,,,,,,,,,,,,4,001,2021_Dec_01_1426,psychophysics_project,2021.2.3,59.81416098635664,
nonsalient,nogo,1nogo4.png,,,0,2,2,14,,,,,,,,,,,,,,,40.04982550593559,42.05524748901371,39.08280319394544,40.08316418598406,None,,40.04982550593559,None,,,,,,,,,,,,,,,,,,,,,,,,,,,,,,,4,001,2021_Dec_01_1426,psychophysics_project,2021.2.3,59.81416098635664,
salient,nogo,1nogov3.png,,,0,3,3,18,,,,,,,,,,,,,,,44.06068316893652,46.06591576396022,43.0746029089205,44.0773062139051,None,,44.06068316893652,43.0746029089205,,,,,,,,,,,,,,,,,,,,,,,,,,,,,,,4,001,2021_Dec_01_1426,psychophysics_project,2021.2.3,59.81416098635664,
salient,go,1gov3.png,,,0,4,4,8,,,,,,,,,,,,,,,48.05464242899325,None,47.085352760972455,48.088024313910864,space,0.3830699499230832,48.05464242899325,47.085352760972455,,,,,,,,,,,,,,,,,,,,,,,,,,,,,,,4,001,2021_Dec_01_1426,psychophysics_project,2021.2.3,59.81416098635664,
salient,go,1gov.png,,,0,5,5,5,,,,,,,,,,,,,,,49.458654230926186,None,48.47239127091598,49.474962588981725,space,0.3735832730308175,49.458654230926186,None,,,,,,,,,,,,,,,,,,,,,,,,,,,,,,,4,001,2021_Dec_01_1426,psychophysics_project,2021.2.3,59.81416098635664,
nonsalient,go,1go3.png,,,0,6,6,3,,,,,,,,,,,,,,,50.8443361739628,None,49.876344863907434,50.87760741496459,space,0.4427493050461635,50.8443361739628,None,,,,,,,,,,,,,,,,,,,,,,,,,,,,,,,4,001,2021_Dec_01_1426,psychophysics_project,2021.2.3,59.81416098635664,
nonsalient,go,1go2.png,,,0,7,7,2,,,,,,,,,,,,,,,52.31600895093288,None,51.33015123591758,52.332698953920044,space,0.372977928025648,52.31600895093288,None,,,,,,,,,,,,,,,,,,,,,,,,,,,,,,,4,001,2021_Dec_01_1426,psychophysics_project,2021.2.3,59.81416098635664,
salient,nogo,1nogov1.png,,,0,8,8,16,,,,,,,,,,,,,,,53.703010883997194,55.70835018099751,52.73372064600699,53.736447911011055,None,,53.703010883997194,None,,,,,,,,,,,,,,,,,,,,,,,,,,,,,,,4,001,2021_Dec_01_1426,psychophysics_project,2021.2.3,59.81416098635664,
salient,go,1gov2.png,,,0,9,9,7,,,,,,,,,,,,,,,57.69715389900375,None,56.72774879599456,57.730653245933354,space,0.35133097996003926,57.69715389900375,56.72774879599456,,,,,,,,,,,,,,,,,,,,,,,,,,,,,,,4,001,2021_Dec_01_1426,psychophysics_project,2021.2.3,59.81416098635664,
nonsalient,nogo,1nogo2.png,,,0,10,10,12,,,,,,,,,,,,,,,59.06681506091263,61.07272702595219,58.0981043059146,59.10085389390588,None,,59.06681506091263,None,,,,,,,,,,,,,,,,,,,,,,,,,,,,,,,4,001,2021_Dec_01_1426,psychophysics_project,2021.2.3,59.81416098635664,
salient,nogo,1nogov2.png,,,0,11,11,17,,,,,,,,,,,,,,,63.06130996590946,65.0666366359219,62.09230904094875,63.09490803594235,None,,63.06130996590946,62.09230904094875,,,,,,,,,,,,,,,,,,,,,,,,,,,,,,,4,001,2021_Dec_01_1426,psychophysics_project,2021.2.3,59.81416098635664,
nonsalient,go,1go1.png,,,0,12,12,1,,,,,,,,,,,,,,,67.05532451090403,None,66.08613376901485,67.08897103392519,space,0.35970466304570436,67.05532451090403,66.08613376901485,,,,,,,,,,,,,,,,,,,,,,,,,,,,,,,4,001,2021_Dec_01_1426,psychophysics_project,2021.2.3,59.81416098635664,
salient,go,1gov4.png,,,0,13,13,9,,,,,,,,,,,,,,,68.4423693359131,None,67.45649380597752,68.45913673390169,space,0.3263664520345628,68.4423693359131,None,,,,,,,,,,,,,,,,,,,,,,,,,,,,,,,4,001,2021_Dec_01_1426,psychophysics_project,2021.2.3,59.81416098635664,
nonsalient,nogo,1nogo.png,,,0,14,14,10,,,,,,,,,,,,,,,69.79599363892339,71.80144909594674,68.81012411101256,69.81268082093447,None,,69.79599363892339,None,,,,,,,,,,,,,,,,,,,,,,,,,,,,,,,4,001,2021_Dec_01_1426,psychophysics_project,2021.2.3,59.81416098635664,
salient,nogo,1nogov.png,,,0,15,15,15,,,,,,,,,,,,,,,73.80666899890639,75.81200379901566,72.8207429460017,73.82352643390186,None,,73.80666899890639,72.8207429460017,,,,,,,,,,,,,,,,,,,,,,,,,,,,,,,4,001,2021_Dec_01_1426,psychophysics_project,2021.2.3,59.81416098635664,
nonsalient,go,1go4.png,,,0,16,16,4,,,,,,,,,,,,,,,77.8175549309235,None,76.83142482396215,77.83414264395833,space,0.40464575006626546,77.8175549309235,76.83142482396215,,,,,,,,,,,,,,,,,,,,,,,,,,,,,,,4,001,2021_Dec_01_1426,psychophysics_project,2021.2.3,59.81416098635664,
nonsalient,nogo,1nogo3.png,,,0,17,17,13,,,,,,,,,,,,,,,79.23796866391785,81.24316307890695,78.2686163840117,79.27136479900219,None,,79.23796866391785,None,,,,,,,,,,,,,,,,,,,,,,,,,,,,,,,4,001,2021_Dec_01_1426,psychophysics_project,2021.2.3,59.81416098635664,
salient,nogo,1nogov4.png,,,0,18,18,19,,,,,,,,,,,,,,,83.24857382394839,85.2540632809978,82.26261627092026,83.26535506092478,None,,83.24857382394839,82.26261627092026,,,,,,,,,,,,,,,,,,,,,,,,,,,,,,,4,001,2021_Dec_01_1426,psychophysics_project,2021.2.3,59.81416098635664,
nonsalient,nogo,1nogo1.png,,,0,19,19,11,,,,,,,,,,,,,,,87.24270336097106,89.24795435392298,86.27345098392107,87.2759826509282,None,,87.24270336097106,86.27345098392107,,,,,,,,,,,,,,,,,,,,,,,,,,,,,,,4,001,2021_Dec_01_1426,psychophysics_project,2021.2.3,59.81416098635664,
,,,,,,,,,,,,,,,,,,,,,,,,,,,,,,,90.25067728897557,None,space,8.118624332943,90.25067728897557,None,,,,,,,,,,,,,,,,,,,,,,,,,4,001,2021_Dec_01_1426,psychophysics_project,2021.2.3,59.81416098635664,
nonsalient,nogo,2nogo3.png,,,,,,,0,0,0,13,,,,,,,,,,,,,,,,,,,,,,,,,98.4223920739023,99.42516365391202,99.40839672891889,101.41381457599346,None,99.40839672891889,None,,,,,,,,,,,,,,,,,,4,001,2021_Dec_01_1426,psychophysics_project,2021.2.3,59.81416098635664,
salient,go,2gov.png,,,,,,,0,1,1,5,,,,,,,,,,,,,,,,,,,,,,,,,102.41657366091385,103.41911476897076,103.40250023896806,None,space,103.40250023896806,None,0.3792708500986919,,,,,,,,,,,,,,,,,4,001,2021_Dec_01_1426,psychophysics_project,2021.2.3,59.81416098635664,
nonsalient,go,2go3.png,,,,,,,0,2,2,3,,,,,,,,,,,,,,,,,,,,,,,,,103.8202348339837,104.82294062094297,104.80629495391622,None,space,104.80629495391622,None,0.35412014194298536,,,,,,,,,,,,,,,,,4,001,2021_Dec_01_1426,psychophysics_project,2021.2.3,59.81416098635664,
salient,go,2gov2.png,,,,,,,0,3,3,7,,,,,,,,,,,,,,,,,,,,,,,,,105.20728004095145,106.20985690597445,106.19324361893814,None,space,106.19324361893814,None,0.3280177280539647,,,,,,,,,,,,,,,,,4,001,2021_Dec_01_1426,psychophysics_project,2021.2.3,59.81416098635664,
nonsalient,nogo,2nogo2.png,,,,,,,0,4,4,12,,,,,,,,,,,,,,,,,,,,,,,,,106.56090448400937,107.5634760109242,107.54687829397153,109.55221097101457,None,107.54687829397153,None,,,,,,,,,,,,,,,,,,4,001,2021_Dec_01_1426,psychophysics_project,2021.2.3,59.81416098635664,
nonsalient,go,2go4.png,,,,,,,0,5,5,4,,,,,,,,,,,,,,,,,,,,,,,,,110.57159753597807,111.57394119899254,111.55753850401379,None,space,111.55753850401379,110.57159753597807,0.3563092080876231,,,,,,,,,,,,,,,,,4,001,2021_Dec_01_1426,psychophysics_project,2021.2.3,59.81416098635664,
salient,nogo,2nogov2.png,,,,,,,0,6,6,17,,,,,,,,,,,,,,,,,,,,,,,,,111.9585324539803,112.96131393394899,112.94467565091327,114.9501536609605,None,112.94467565091327,None,,,,,,,,,,,,,,,,,,4,001,2021_Dec_01_1426,psychophysics_project,2021.2.3,59.81416098635664,
salient,nogo,2nogov.png,,,,,,,0,7,7,15,,,,,,,,,,,,,,,,,,,,,,,,,115.9694878240116,116.97212669393048,116.95540983590763,118.96078394399956,None,116.95540983590763,115.9694878240116,,,,,,,,,,,,,,,,,,4,001,2021_Dec_01_1426,psychophysics_project,2021.2.3,59.81416098635664,
salient,go,2gov4.png,,,,,,,0,8,8,9,,,,,,,,,,,,,,,,,,,,,,,,,119.98001185897738,120.98261732899118,120.96622822899371,None,space,120.96622822899371,119.98001185897738,0.3703058250248432,,,,,,,,,,,,,,,,,4,001,2021_Dec_01_1426,psychophysics_project,2021.2.3,59.81416098635664,
nonsalient,go,2go1.png,,,,,,,0,9,9,1,,,,,,,,,,,,,,,,,,,,,,,,,121.3835718309274,122.3864392839605,122.36970703396946,None,space,122.36970703396946,None,0.35974802693817765,,,,,,,,,,,,,,,,,4,001,2021_Dec_01_1426,psychophysics_project,2021.2.3,59.81416098635664,
salient,nogo,2nogov1.png,,,,,,,0,10,10,16,,,,,,,,,,,,,,,,,,,,,,,,,122.77093702100683,123.77342711901292,123.74006256391294,125.74546675093006,None,123.74006256391294,None,,,,,,,,,,,,,,,,,,4,001,2021_Dec_01_1426,psychophysics_project,2021.2.3,59.81416098635664,
nonsalient,go,2go.png,,,,,,,0,11,11,0,,,,,,,,,,,,,,,,,,,,,,,,,126.76486388396006,127.76746592391282,127.75072094600182,None,space,127.75072094600182,126.76486388396006,0.356693652109243,,,,,,,,,,,,,,,,,4,001,2021_Dec_01_1426,psychophysics_project,2021.2.3,59.81416098635664,
salient,nogo,2nogov4.png,,,,,,,0,12,12,19,,,,,,,,,,,,,,,,,,,,,,,,,128.15177611401305,129.15446628595237,129.1377823239891,131.14319470594637,None,129.1377823239891,None,,,,,,,,,,,,,,,,,,4,001,2021_Dec_01_1426,psychophysics_project,2021.2.3,59.81416098635664,
salient,go,2gov1.png,,,,,,,0,13,13,6,,,,,,,,,,,,,,,,,,,,,,,,,132.16244348092005,133.16522844601423,133.14858876890503,None,space,133.14858876890503,132.16244348092005,0.34655081294476986,,,,,,,,,,,,,,,,,4,001,2021_Dec_01_1426,psychophysics_project,2021.2.3,59.81416098635664,
salient,go,2gov3.png,,,,,,,0,14,14,8,,,,,,,,,,,,,,,,,,,,,,,,,133.5330286709359,134.53560834401287,134.51902431400958,None,space,134.51902431400958,None,0.3478727829642594,,,,,,,,,,,,,,,,,4,001,2021_Dec_01_1426,psychophysics_project,2021.2.3,59.81416098635664,
nonsalient,nogo,2nogo1.png,,,,,,,0,15,15,11,,,,,,,,,,,,,,,,,,,,,,,,,134.9033649689518,135.90599870600272,135.88914476893842,137.89424797601532,None,135.88914476893842,None,,,,,,,,,,,,,,,,,,4,001,2021_Dec_01_1426,psychophysics_project,2021.2.3,59.81416098635664,
nonsalient,nogo,2nogo.png,,,,,,,0,16,16,10,,,,,,,,,,,,,,,,,,,,,,,,,138.91399531892966,139.9166068509221,139.8832054559607,141.88843121391255,None,139.8832054559607,138.91399531892966,,,,,,,,,,,,,,,,,,4,001,2021_Dec_01_1426,psychophysics_project,2021.2.3,59.81416098635664,
salient,nogo,2nogov3.png,,,,,,,0,17,17,18,,,,,,,,,,,,,,,,,,,,,,,,,142.90808005898725,143.91064181900583,143.89384143101051,145.8992244239198,None,143.89384143101051,142.90808005898725,,,,,,,,,,,,,,,,,,4,001,2021_Dec_01_1426,psychophysics_project,2021.2.3,59.81416098635664,
nonsalient,nogo,2nogo4.png,,,,,,,0,18,18,14,,,,,,,,,,,,,,,,,,,,,,,,,146.91879010398407,147.92139451391995,147.88788033591118,149.89328034594655,None,147.88788033591118,146.91879010398407,,,,,,,,,,,,,,,,,,4,001,2021_Dec_01_1426,psychophysics_project,2021.2.3,59.81416098635664,
nonsalient,go,2go2.png,,,,,,,0,19,19,2,,,,,,,,,,,,,,,,,,,,,,,,,150.9128298459109,151.91538138594478,151.8818276009988,None,space,151.8818276009988,150.9128298459109,0.38913648994639516,,,,,,,,,,,,,,,,,4,001,2021_Dec_01_1426,psychophysics_project,2021.2.3,59.81416098635664,
,,,,,,,,,,,,,,,,,,,,,,,,,,,,,,,,,,,,,,,,,,,,,152.2994189109886,None,space,24.466243179980665,152.2994189109886,None,,,,,,,,,,,4,001,2021_Dec_01_1426,psychophysics_project,2021.2.3,59.81416098635664,
salient,,1nogov.png,st,circle,,,,,,,,,0,0,0,5,,,,,,,,,,,,,,,,,,,,,,,,,,,,,,,,,,,176.83199312596116,177.83481736900285,177.81779403390829,179.82315570593346,179.80651610391214,None,left,1.5457452780101448,179.80651610391214,None,4,001,2021_Dec_01_1426,psychophysics_project,2021.2.3,59.81416098635664,
salient,,1gov.png,st,rectangle,,,,,,,,,0,1,1,15,,,,,,,,,,,,,,,,,,,,,,,,,,,,,,,,,,,181.39405801601242,182.39668314892333,182.36331611091737,184.36880866601132,184.36880866601132,None,right,1.0461931030731648,184.36880866601132,None,4,001,2021_Dec_01_1426,psychophysics_project,2021.2.3,59.81416098635664,
salient,,1gov4.png,st,rectangle,,,,,,,,,0,2,2,19,,,,,,,,,,,,,,,,,,,,,,,,,,,,,,,,,,,185.45494834601413,186.45757168892305,186.4410009009298,188.4462523839902,188.4462523839902,None,right,1.0498927399748936,188.4462523839902,None,4,001,2021_Dec_01_1426,psychophysics_project,2021.2.3,59.81416098635664,
nonsalient,,nonstr.png,nonst,rectangle,,,,,,,,,0,3,3,30,,,,,,,,,,,,,,,,,,,,,,,,,,,,,,,,,,,189.53244664601516,190.53526111098472,190.51853439596016,192.52376356592868,192.52376356592868,None,left,0.42705602291971445,192.52376356592868,None,4,001,2021_Dec_01_1426,psychophysics_project,2021.2.3,59.81416098635664,
salient,,nonstrv1.png,nonst,rectangle,,,,,,,,,0,4,4,36,,,,,,,,,,,,,,,,,,,,,,,,,,,,,,,,,,,192.9918754339451,193.9944106459152,193.9776412039064,195.98295988398604,195.98295988398604,None,left,1.1719898999435827,195.98295988398604,None,4,001,2021_Dec_01_1426,psychophysics_project,2021.2.3,59.81416098635664,
nonsalient,,1nogo.png,st,circle,,,,,,,,,0,5,5,0,,,,,,,,,,,,,,,,,,,,,,,,,,,,,,,,,,,197.202975993976,198.20557585393544,198.17190997395664,200.17599572893232,200.17599572893232,None,right,0.5396453479770571,200.17599572893232,None,4,001,2021_Dec_01_1426,psychophysics_project,2021.2.3,59.81416098635664,
nonsalient,,nonstr3.png,nonst,rectangle,,,,,,,,,0,6,6,33,,,,,,,,,,,,,,,,,,,,,,,,,,,,,,,,,,,200.76255384390242,201.765115913935,201.73182796593755,203.7370905089192,203.7370905089192,None,right,1.601230790023692,203.7370905089192,None,4,001,2021_Dec_01_1426,psychophysics_project,2021.2.3,59.81416098635664,
salient,,1nogov3.png,st,circle,,,,,,,,,0,7,7,8,,,,,,,,,,,,,,,,,,,,,,,,,,,,,,,,,,,205.3748374140123,206.37739057594445,206.3606458689319,208.36615151399747,208.36615151399747,None,left,0.9929701200453565,208.36615151399747,None,4,001,2021_Dec_01_1426,psychophysics_project,2021.2.3,59.81416098635664,
salient,,nonstrv3.png,nonst,rectangle,,,,,,,,,0,8,8,38,,,,,,,,,,,,,,,,,,,,,,,,,,,,,,,,,,,209.40217805595603,210.40498637396377,210.38808590592816,212.39359878597315,212.39359878597315,None,right,0.766527837025933,212.39359878597315,None,4,001,2021_Dec_01_1426,psychophysics_project,2021.2.3,59.81416098635664,
salient,,nonstrv4.png,nonst,rectangle,,,,,,,,,0,9,9,39,,,,,,,,,,,,,,,,,,,,,,,,,,,,,,,,,,,213.19573879393283,214.19840570597444,214.1817763359286,216.18708983401302,216.18708983401302,None,right,0.8217050720704719,216.18708983401302,None,4,001,2021_Dec_01_1426,psychophysics_project,2021.2.3,59.81416098635664,
nonsalient,,1go4.png,st,rectangle,,,,,,,,,0,10,10,14,,,,,,,,,,,,,,,,,,,,,,,,,,,,,,,,,,,217.05580967396963,218.05856608098838,218.04182590392884,220.04717395396437,220.0305476739304,None,right,1.0164738700259477,220.0305476739304,None,4,001,2021_Dec_01_1426,psychophysics_project,2021.2.3,59.81416098635664,
nonsalient,,nonstc4.png,nonst,circle,,,,,,,,,0,11,11,24,,,,,,,,,,,,,,,,,,,,,,,,,,,,,,,,,,,221.08341381396167,222.08615352399647,222.0695166689111,224.07477978093084,224.07477978093084,None,right,1.6290154529269785,224.07477978093084,None,4,001,2021_Dec_01_1426,psychophysics_project,2021.2.3,59.81416098635664,
salient,,1gov3.png,st,rectangle,,,,,,,,,0,12,12,18,,,,,,,,,,,,,,,,,,,,,,,,,,,,,,,,,,,225.74580257898197,226.7484235590091,226.7149925759295,228.72033004893456,228.72033004893456,None,right,0.913939579972066,228.72033004893456,None,4,001,2021_Dec_01_1426,psychophysics_project,2021.2.3,59.81416098635664,
salient,,nonstrv.png,nonst,rectangle,,,,,,,,,0,13,13,35,,,,,,,,,,,,,,,,,,,,,,,,,,,,,,,,,,,229.67297748394776,230.67576609400567,230.659080456011,232.66449558595195,232.64757866598666,None,left,0.8228671019896865,232.64757866598666,None,4,001,2021_Dec_01_1426,psychophysics_project,2021.2.3,59.81416098635664,
nonsalient,,1nogo4.png,st,circle,,,,,,,,,0,14,14,4,,,,,,,,,,,,,,,,,,,,,,,,,,,,,,,,,,,233.51671180396806,234.5192645889474,234.4860773239052,236.49137726100162,236.49137726100162,None,right,0.4701787650119513,236.49137726100162,None,4,001,2021_Dec_01_1426,psychophysics_project,2021.2.3,59.81416098635664,
nonsalient,,nonstc1.png,nonst,circle,,,,,,,,,0,15,15,21,,,,,,,,,,,,,,,,,,,,,,,,,,,,,,,,,,,237.00927834399045,238.01188521599397,237.99527407891583,240.0006377659738,239.98397890396882,None,left,0.7583591069560498,239.98397890396882,None,4,001,2021_Dec_01_1426,psychophysics_project,2021.2.3,59.81416098635664,
nonsalient,,nonstc3.png,nonst,circle,,,,,,,,,0,16,16,23,,,,,,,,,,,,,,,,,,,,,,,,,,,,,,,,,,,240.7860159309348,241.7886760889087,241.75523080397397,243.76073133095633,243.76073133095633,None,left,0.5904487519292161,243.76073133095633,None,4,001,2021_Dec_01_1426,psychophysics_project,2021.2.3,59.81416098635664,
nonsalient,,1nogo3.png,st,circle,,,,,,,,,0,17,17,3,,,,,,,,,,,,,,,,,,,,,,,,,,,,,,,,,,,244.39575172099285,245.39852862094995,245.38156198896468,247.38695549895056,247.37024084595032,None,left,1.358270230004564,247.37024084595032,None,4,001,2021_Dec_01_1426,psychophysics_project,2021.2.3,59.81416098635664,
salient,,nonstcv2.png,nonst,circle,,,,,,,,,0,18,18,27,,,,,,,,,,,,,,,,,,,,,,,,,,,,,,,,,,,248.77408072096296,249.77668023097795,249.76000454393215,251.7655551789794,251.7487368809525,None,left,0.5822023899527267,251.7487368809525,None,4,001,2021_Dec_01_1426,psychophysics_project,2021.2.3,59.81416098635664,
nonsalient,,1nogo1.png,st,circle,,,,,,,,,0,19,19,1,,,,,,,,,,,,,,,,,,,,,,,,,,,,,,,,,,,252.36693684093188,253.36961408390198,253.35303918097634,255.3582502459176,255.3582502459176,None,right,0.4274825119646266,255.3582502459176,None,4,001,2021_Dec_01_1426,psychophysics_project,2021.2.3,59.81416098635664,
salient,,1gov1.png,st,rectangle,,,,,,,,,0,20,20,16,,,,,,,,,,,,,,,,,,,,,,,,,,,,,,,,,,,255.82630931399763,256.82888964097947,256.7954016189324,258.8007748189848,258.8007748189848,None,right,0.373718572081998,258.8007748189848,None,4,001,2021_Dec_01_1426,psychophysics_project,2021.2.3,59.81416098635664,
salient,,1nogov4.png,st,circle,,,,,,,,,0,21,21,9,,,,,,,,,,,,,,,,,,,,,,,,,,,,,,,,,,,259.2186233859975,260.2212442839518,260.18794763600454,262.19161158194765,262.19161158194765,None,right,0.26875799510162324,262.19161158194765,None,4,001,2021_Dec_01_1426,psychophysics_project,2021.2.3,59.81416098635664,
salient,,nonstrv2.png,nonst,rectangle,,,,,,,,,0,22,22,37,,,,,,,,,,,,,,,,,,,,,,,,,,,,,,,,,,,262.4940210109344,263.49662630597595,263.4801798739936,265.48545697599184,265.48545697599184,None,left,0.2646552399965003,265.48545697599184,None,4,001,2021_Dec_01_1426,psychophysics_project,2021.2.3,59.81416098635664,
salient,,1nogov1.png,st,circle,,,,,,,,,0,23,23,6,,,,,,,,,,,,,,,,,,,,,,,,,,,,,,,,,,,265.78620827093255,266.78873333893716,266.7720239639748,268.77758270397317,268.77758270397317,None,left,0.2824408969609067,268.77758270397317,None,4,001,2021_Dec_01_1426,psychophysics_project,2021.2.3,59.81416098635664,
salient,,1gov2.png,st,rectangle,,,,,,,,,0,24,24,17,,,,,,,,,,,,,,,,,,,,,,,,,,,,,,,,,,,269.094983903924,270.0976722239284,270.08095834590495,272.0863766839029,272.0863766839029,None,right,0.2943731079576537,272.0863766839029,None,4,001,2021_Dec_01_1426,psychophysics_project,2021.2.3,59.81416098635664,
nonsalient,,nonstc2.png,nonst,circle,,,,,,,,,0,25,25,22,,,,,,,,,,,,,,,,,,,,,,,,,,,,,,,,,,,272.4206456489628,273.4232471459545,273.40648145601153,275.41177238395903,275.3950781559106,None,right,0.5246489900164306,275.3950781559106,None,4,001,2021_Dec_01_1426,psychophysics_project,2021.2.3,59.81416098635664,
nonsalient,,1go1.png,st,rectangle,,,,,,,,,0,26,26,11,,,,,,,,,,,,,,,,,,,,,,,,,,,,,,,,,,,275.9634280609898,276.96593549090903,276.93256042094436,278.93787175393663,278.93787175393663,None,right,0.9488562549231574,278.93787175393663,None,4,001,2021_Dec_01_1426,psychophysics_project,2021.2.3,59.81416098635664,
salient,,nonstcv1.png,nonst,circle,,,,,,,,,0,27,27,26,,,,,,,,,,,,,,,,,,,,,,,,,,,,,,,,,,,279.9242323709186,280.92662291100714,280.9098966009915,282.91521371901035,282.91521371901035,None,right,0.30674357002135366,282.91521371901035,None,4,001,2021_Dec_01_1426,psychophysics_project,2021.2.3,59.81416098635664,
nonsalient,,1go2.png,st,rectangle,,,,,,,,,0,28,28,12,,,,,,,,,,,,,,,,,,,,,,,,,,,,,,,,,,,283.2662814639043,284.2687501090113,284.2354297589045,286.2408433909295,286.2408433909295,None,right,0.3009349450003356,286.2408433909295,None,4,001,2021_Dec_01_1426,psychophysics_project,2021.2.3,59.81416098635664,
nonsalient,,1go.png,st,rectangle,,,,,,,,,0,29,29,10,,,,,,,,,,,,,,,,,,,,,,,,,,,,,,,,,,,286.5918748989934,287.5943308909191,287.56100391596556,289.5662845990155,289.5662845990155,None,right,0.2979565180139616,289.5662845990155,None,4,001,2021_Dec_01_1426,psychophysics_project,2021.2.3,59.81416098635664,
salient,,nonstcv4.png,nonst,circle,,,,,,,,,0,30,30,29,,,,,,,,,,,,,,,,,,,,,,,,,,,,,,,,,,,289.9005381389288,290.9027519139927,290.8864663639106,292.8918163609924,292.8918163609924,None,left,0.24087176006287336,292.8918163609924,None,4,001,2021_Dec_01_1426,psychophysics_project,2021.2.3,59.81416098635664,
nonsalient,,nonstc.png,nonst,circle,,,,,,,,,0,31,31,20,,,,,,,,,,,,,,,,,,,,,,,,,,,,,,,,,,,293.1759431610117,294.1786083059851,294.1452621209901,296.1505477989558,296.1505477989558,None,right,0.27912977198138833,296.1505477989558,None,4,001,2021_Dec_01_1426,psychophysics_project,2021.2.3,59.81416098635664,
salient,,1nogov2.png,st,circle,,,,,,,,,0,32,32,7,,,,,,,,,,,,,,,,,,,,,,,,,,,,,,,,,,,296.46819706098177,297.4707016639877,297.4541174239712,299.4593327639159,299.44276693393476,None,right,0.32571137009654194,299.44276693393476,None,4,001,2021_Dec_01_1426,psychophysics_project,2021.2.3,59.81416098635664,
nonsalient,,1go3.png,st,rectangle,,,,,,,,,0,33,33,13,,,,,,,,,,,,,,,,,,,,,,,,,,,,,,,,,,,299.8105834960006,300.81318917893805,300.7964306359645,302.8015949889086,302.8015949889086,None,right,1.0485637800302356,302.8015949889086,None,4,001,2021_Dec_01_1426,psychophysics_project,2021.2.3,59.81416098635664,
nonsalient,,nonstr4.png,nonst,rectangle,,,,,,,,,0,34,34,34,,,,,,,,,,,,,,,,,,,,,,,,,,,,,,,,,,,303.8879854439292,304.8906958409352,304.87392093392555,306.879195993999,306.879195993999,None,right,0.22375779307913035,306.879195993999,None,4,001,2021_Dec_01_1426,psychophysics_project,2021.2.3,59.81416098635664,
nonsalient,,nonstr1.png,nonst,rectangle,,,,,,,,,0,35,35,31,,,,,,,,,,,,,,,,,,,,,,,,,,,,,,,,,,,307.14665439596865,308.1493723390158,308.1325023159152,310.1378960040165,310.1378960040165,None,right,0.3330153049901128,310.1378960040165,None,4,001,2021_Dec_01_1426,psychophysics_project,2021.2.3,59.81416098635664,
nonsalient,,nonstr2.png,nonst,rectangle,,,,,,,,,0,36,36,32,,,,,,,,,,,,,,,,,,,,,,,,,,,,,,,,,,,310.5057014039485,311.5082181689795,311.49150173098315,313.49694846896455,313.49694846896455,None,left,0.37032208999153227,313.49694846896455,None,4,001,2021_Dec_01_1426,psychophysics_project,2021.2.3,59.81416098635664,
salient,,nonstcv.png,nonst,circle,,,,,,,,,0,37,37,25,,,,,,,,,,,,,,,,,,,,,,,,,,,,,,,,,,,313.9146738839336,314.9172870889306,314.9005986539414,316.9059751390014,316.8894605359528,None,right,0.2733437429415062,316.8894605359528,None,4,001,2021_Dec_01_1426,psychophysics_project,2021.2.3,59.81416098635664,
nonsalient,,1nogo2.png,st,circle,,,,,,,,,0,38,38,2,,,,,,,,,,,,,,,,,,,,,,,,,,,,,,,,,,,317.20692120096646,318.2094348439714,318.1927884989418,320.19816458097193,320.1813865059521,None,right,0.23819821001961827,320.1813865059521,None,4,001,2021_Dec_01_1426,psychophysics_project,2021.2.3,59.81416098635664,
salient,,nonstcv3.png,nonst,circle,,,,,,,,,0,39,39,28,,,,,,,,,,,,,,,,,,,,,,,,,,,,,,,,,,,320.4654438539874,321.4692062989343,321.45147974591237,323.45682416600175,323.45682416600175,None,left,0.3386121999938041,323.45682416600175,None,4,001,2021_Dec_01_1426,psychophysics_project,2021.2.3,59.81416098635664,
