condition,task,stim_file,type,shape,trials.thisRepN,trials.thisTrialN,trials.thisN,trials.thisIndex,trials_2.thisRepN,trials_2.thisTrialN,trials_2.thisN,trials_2.thisIndex,trials_3.thisRepN,trials_3.thisTrialN,trials_3.thisN,trials_3.thisIndex,text.started,text.stopped,key_resp.keys,key_resp.rt,key_resp.started,key_resp.stopped,image.started,image.stopped,text2.started,text2.stopped,key_resp_2.keys,key_resp_2.started,key_resp_2.stopped,key_resp_2.rt,text_3.started,text_3.stopped,key_resp_4.keys,key_resp_4.rt,key_resp_4.started,key_resp_4.stopped,text_2.started,text_2.stopped,image_2.started,image_2.stopped,key_resp_3.keys,key_resp_3.started,key_resp_3.stopped,key_resp_3.rt,text_6.started,text_6.stopped,key_resp_6.keys,key_resp_6.rt,key_resp_6.started,key_resp_6.stopped,text_4.started,text_4.stopped,image_3.started,image_3.stopped,text_5.started,text_5.stopped,key_resp_5.keys,key_resp_5.rt,key_resp_5.started,key_resp_5.stopped,participant,session,date,expName,psychopyVersion,frameRate,
,,,,,,,,,,,,,,,,,15.795061399927363,None,space,34.438330410048366,15.795061399927363,None,,,,,,,,,,,,,,,,,,,,,,,,,,,,,,,,,,,,,,,8,001,2021_Dec_01_1947,psychophysics_project,2021.2.3,59.784642413582766,
salient,nogo,1nogov1.png,,,0,0,0,16,,,,,,,,,,,,,,,51.3066365479026,53.31210404494777,50.337535628001206,51.34012496797368,None,51.3066365479026,None,,,,,,,,,,,,,,,,,,,,,,,,,,,,,,,,8,001,2021_Dec_01_1947,psychophysics_project,2021.2.3,59.784642413582766,
nonsalient,nogo,1nogo4.png,,,0,1,1,14,,,,,,,,,,,,,,,55.267244039918296,57.27266537793912,54.28222149796784,55.28411905292887,None,55.267244039918296,None,,,,,,,,,,,,,,,,,,,,,,,,,,,,,,,,8,001,2021_Dec_01_1947,psychophysics_project,2021.2.3,59.784642413582766,
nonsalient,nogo,1nogo.png,,,0,2,2,10,,,,,,,,,,,,,,,59.2614815949928,61.26664136792533,58.276994002982974,59.278096064925194,None,59.2614815949928,None,,,,,,,,,,,,,,,,,,,,,,,,,,,,,,,,8,001,2021_Dec_01_1947,psychophysics_project,2021.2.3,59.784642413582766,
nonsalient,go,1go3.png,,,0,3,3,3,,,,,,,,,,,,,,,63.27187703293748,None,62.28603713493794,63.28866304294206,space,63.27187703293748,None,0.6656224069884047,,,,,,,,,,,,,,,,,,,,,,,,,,,,,,,8,001,2021_Dec_01_1947,psychophysics_project,2021.2.3,59.784642413582766,
nonsalient,nogo,1nogo3.png,,,0,4,4,13,,,,,,,,,,,,,,,64.94307349296287,66.9486817579018,63.973651542910375,64.9767176999012,None,64.94307349296287,None,,,,,,,,,,,,,,,,,,,,,,,,,,,,,,,,8,001,2021_Dec_01_1947,psychophysics_project,2021.2.3,59.784642413582766,
nonsalient,nogo,1nogo1.png,,,0,5,5,11,,,,,,,,,,,,,,,68.95375448500272,70.95918015495408,67.96793864492793,68.97022654500324,None,68.95375448500272,67.96793864492793,,,,,,,,,,,,,,,,,,,,,,,,,,,,,,,,8,001,2021_Dec_01_1947,psychophysics_project,2021.2.3,59.784642413582766,
salient,nogo,1nogov2.png,,,0,6,6,17,,,,,,,,,,,,,,,72.96457241789903,74.9698141249828,71.97781027492601,72.98066019290127,None,72.96457241789903,71.97781027492601,,,,,,,,,,,,,,,,,,,,,,,,,,,,,,,,8,001,2021_Dec_01_1947,psychophysics_project,2021.2.3,59.784642413582766,
nonsalient,go,1go1.png,,,0,7,7,1,,,,,,,,,,,,,,,76.95845183299389,None,75.98905787291005,76.99197355797514,space,76.95845183299389,75.98905787291005,0.6815009380225092,,,,,,,,,,,,,,,,,,,,,,,,,,,,,,,8,001,2021_Dec_01_1947,psychophysics_project,2021.2.3,59.784642413582766,
nonsalient,go,1go.png,,,0,8,8,0,,,,,,,,,,,,,,,78.64627497293986,None,77.6772131799953,78.67989904992282,space,78.64627497293986,None,0.6834021250251681,,,,,,,,,,,,,,,,,,,,,,,,,,,,,,,8,001,2021_Dec_01_1947,psychophysics_project,2021.2.3,59.784642413582766,
nonsalient,go,1go4.png,,,0,9,9,4,,,,,,,,,,,,,,,80.35092647490092,None,79.36505501996726,80.36762200994417,space,80.35092647490092,None,0.42558815493248403,,,,,,,,,,,,,,,,,,,,,,,,,,,,,,,8,001,2021_Dec_01_1947,psychophysics_project,2021.2.3,59.784642413582766,
salient,nogo,1nogov4.png,,,0,10,10,19,,,,,,,,,,,,,,,81.78812786296476,83.7934027579613,80.81879949290305,81.82143889297731,None,81.78812786296476,None,,,,,,,,,,,,,,,,,,,,,,,,,,,,,,,,8,001,2021_Dec_01_1947,psychophysics_project,2021.2.3,59.784642413582766,
salient,nogo,1nogov.png,,,0,11,11,15,,,,,,,,,,,,,,,85.79885710799135,87.80426441994496,84.81302511494141,85.81559175997972,None,85.79885710799135,84.81302511494141,,,,,,,,,,,,,,,,,,,,,,,,,,,,,,,,8,001,2021_Dec_01_1947,psychophysics_project,2021.2.3,59.784642413582766,
salient,go,1gov.png,,,0,12,12,5,,,,,,,,,,,,,,,89.80958425800782,None,88.82367150997743,89.82620131294243,space,89.80958425800782,88.82367150997743,0.5898126329993829,,,,,,,,,,,,,,,,,,,,,,,,,,,,,,,8,001,2021_Dec_01_1947,psychophysics_project,2021.2.3,59.784642413582766,
salient,go,1gov1.png,,,0,13,13,6,,,,,,,,,,,,,,,91.41389861493371,None,90.44458086998202,91.44717354991008,space,91.41389861493371,None,0.48815087496768683,,,,,,,,,,,,,,,,,,,,,,,,,,,,,,,8,001,2021_Dec_01_1947,psychophysics_project,2021.2.3,59.784642413582766,
nonsalient,nogo,1nogo2.png,,,0,14,14,12,,,,,,,,,,,,,,,92.91794702794868,94.92316324496642,91.94889138999861,92.95118261291645,None,92.91794702794868,None,,,,,,,,,,,,,,,,,,,,,,,,,,,,,,,,8,001,2021_Dec_01_1947,psychophysics_project,2021.2.3,59.784642413582766,
salient,nogo,1nogov3.png,,,0,15,15,18,,,,,,,,,,,,,,,96.92855309799779,98.93411756795831,95.9424380849814,96.94507761800196,None,96.92855309799779,95.9424380849814,,,,,,,,,,,,,,,,,,,,,,,,,,,,,,,,8,001,2021_Dec_01_1947,psychophysics_project,2021.2.3,59.784642413582766,
salient,go,1gov4.png,,,0,16,16,9,,,,,,,,,,,,,,,100.93932579795364,None,99.9530220729066,100.95587683294434,space,100.93932579795364,99.9530220729066,0.5195904000429437,,,,,,,,,,,,,,,,,,,,,,,,,,,,,,,8,001,2021_Dec_01_1947,psychophysics_project,2021.2.3,59.784642413582766,
salient,go,1gov2.png,,,0,17,17,7,,,,,,,,,,,,,,,102.4768076329492,None,101.50763624499086,102.51010044990107,space,102.4768076329492,None,0.4536006449488923,,,,,,,,,,,,,,,,,,,,,,,,,,,,,,,8,001,2021_Dec_01_1947,psychophysics_project,2021.2.3,59.784642413582766,
salient,go,1gov3.png,,,0,18,18,8,,,,,,,,,,,,,,,103.9475994729437,None,102.9780112899607,103.98072353797033,space,103.9475994729437,None,0.7097048900322989,,,,,,,,,,,,,,,,,,,,,,,,,,,,,,,8,001,2021_Dec_01_1947,psychophysics_project,2021.2.3,59.784642413582766,
nonsalient,go,1go2.png,,,0,19,19,2,,,,,,,,,,,,,,,105.68516016495414,None,104.69940749299712,105.70204578794073,space,105.68516016495414,None,0.6220672749914229,,,,,,,,,,,,,,,,,,,,,,,,,,,,,,,8,001,2021_Dec_01_1947,psychophysics_project,2021.2.3,59.784642413582766,
,,,,,,,,,,,,,,,,,,,,,,,,,,,,,,,106.33677060995251,None,space,34.0862006599782,106.33677060995251,None,,,,,,,,,,,,,,,,,,,,,,,,,8,001,2021_Dec_01_1947,psychophysics_project,2021.2.3,59.784642413582766,
salient,nogo,2nogov1.png,,,,,,,0,0,0,16,,,,,,,,,,,,,,,,,,,,,,,,,140.47801694297232,141.4807939629536,141.4641306779813,143.469339387957,None,141.4641306779813,None,,,,,,,,,,,,,,,,,,8,001,2021_Dec_01_1947,psychophysics_project,2021.2.3,59.784642413582766,
salient,nogo,2nogov.png,,,,,,,0,1,1,15,,,,,,,,,,,,,,,,,,,,,,,,,144.47218737495132,145.47498132300097,145.45807347493246,147.46371408295818,None,145.45807347493246,None,,,,,,,,,,,,,,,,,,8,001,2021_Dec_01_1947,psychophysics_project,2021.2.3,59.784642413582766,
nonsalient,nogo,2nogo1.png,,,,,,,0,2,2,11,,,,,,,,,,,,,,,,,,,,,,,,,148.46610117796808,149.46896291989833,149.4522466500057,151.45744358794764,None,149.4522466500057,None,,,,,,,,,,,,,,,,,,8,001,2021_Dec_01_1947,psychophysics_project,2021.2.3,59.784642413582766,
salient,nogo,2nogov4.png,,,,,,,0,3,3,19,,,,,,,,,,,,,,,,,,,,,,,,,152.47709979792126,153.47960222989786,153.46280907001346,155.468318022904,None,153.46280907001346,None,,,,,,,,,,,,,,,,,,8,001,2021_Dec_01_1947,psychophysics_project,2021.2.3,59.784642413582766,
nonsalient,nogo,2nogo3.png,,,,,,,0,4,4,13,,,,,,,,,,,,,,,,,,,,,,,,,156.47079180495348,157.4733890229836,157.45709733793046,159.46226320799906,None,157.45709733793046,None,,,,,,,,,,,,,,,,,,8,001,2021_Dec_01_1947,psychophysics_project,2021.2.3,59.784642413582766,
nonsalient,go,2go.png,,,,,,,0,5,5,0,,,,,,,,,,,,,,,,,,,,,,,,,160.46470631298143,161.4675527929794,161.4508263450116,None,space,161.4508263450116,None,0.5015208020340651,,,,,,,,,,,,,,,,,8,001,2021_Dec_01_1947,psychophysics_project,2021.2.3,59.784642413582766,
nonsalient,go,2go1.png,,,,,,,0,6,6,1,,,,,,,,,,,,,,,,,,,,,,,,,162.01904720789753,163.02158996998332,162.98825848498382,None,space,162.98825848498382,None,0.44082208001054823,,,,,,,,,,,,,,,,,8,001,2021_Dec_01_1947,psychophysics_project,2021.2.3,59.784642413582766,
nonsalient,nogo,2nogo2.png,,,,,,,0,7,7,12,,,,,,,,,,,,,,,,,,,,,,,,,163.47304794797674,164.47556150495075,164.44211230799556,166.44750205997843,None,164.44211230799556,None,,,,,,,,,,,,,,,,,,8,001,2021_Dec_01_1947,psychophysics_project,2021.2.3,59.784642413582766,
salient,go,2gov1.png,,,,,,,0,8,8,6,,,,,,,,,,,,,,,,,,,,,,,,,167.4667445499217,168.4696092529921,168.45290771790314,None,space,168.45290771790314,167.4667445499217,0.40466810995712876,,,,,,,,,,,,,,,,,8,001,2021_Dec_01_1947,psychophysics_project,2021.2.3,59.784642413582766,
nonsalient,go,2go2.png,,,,,,,0,9,9,2,,,,,,,,,,,,,,,,,,,,,,,,,168.9042093999451,169.90701272292063,169.8734098249115,None,space,169.8734098249115,None,0.4471803449559957,,,,,,,,,,,,,,,,,8,001,2021_Dec_01_1947,psychophysics_project,2021.2.3,59.784642413582766,
salient,go,2gov.png,,,,,,,0,10,10,5,,,,,,,,,,,,,,,,,,,,,,,,,170.35820924292784,171.35977167391684,171.3272548679961,None,space,171.3272548679961,None,0.41433744004461914,,,,,,,,,,,,,,,,,8,001,2021_Dec_01_1947,psychophysics_project,2021.2.3,59.784642413582766,
nonsalient,go,2go4.png,,,,,,,0,11,11,4,,,,,,,,,,,,,,,,,,,,,,,,,171.77851895301137,172.78107638994697,172.7478552549146,None,space,172.7478552549146,None,0.3907120149815455,,,,,,,,,,,,,,,,,8,001,2021_Dec_01_1947,psychophysics_project,2021.2.3,59.784642413582766,
nonsalient,nogo,2nogo4.png,,,,,,,0,12,12,14,,,,,,,,,,,,,,,,,,,,,,,,,173.18210867792368,174.18497732491232,174.1681977349799,176.17347103299107,None,174.1681977349799,None,,,,,,,,,,,,,,,,,,8,001,2021_Dec_01_1947,psychophysics_project,2021.2.3,59.784642413582766,
nonsalient,go,2go3.png,,,,,,,0,13,13,3,,,,,,,,,,,,,,,,,,,,,,,,,177.19268784299493,178.1956822948996,178.1789803300053,None,space,178.1789803300053,177.19268784299493,0.4967851850669831,,,,,,,,,,,,,,,,,8,001,2021_Dec_01_1947,psychophysics_project,2021.2.3,59.784642413582766,
salient,nogo,2nogov3.png,,,,,,,0,14,14,18,,,,,,,,,,,,,,,,,,,,,,,,,178.71363104798365,179.7165353029268,179.69954419799615,181.70502969494555,None,179.69954419799615,None,,,,,,,,,,,,,,,,,,8,001,2021_Dec_01_1947,psychophysics_project,2021.2.3,59.784642413582766,
salient,go,2gov3.png,,,,,,,0,15,15,8,,,,,,,,,,,,,,,,,,,,,,,,,182.72419290500693,183.72694870294072,183.71027192496695,None,space,183.71027192496695,182.72419290500693,0.5404622869100422,,,,,,,,,,,,,,,,,8,001,2021_Dec_01_1947,psychophysics_project,2021.2.3,59.784642413582766,
salient,go,2gov4.png,,,,,,,0,16,16,9,,,,,,,,,,,,,,,,,,,,,,,,,184.2953287200071,185.29797778499778,185.28113592998125,None,space,185.28113592998125,None,0.4131795099237934,,,,,,,,,,,,,,,,,8,001,2021_Dec_01_1947,psychophysics_project,2021.2.3,59.784642413582766,
salient,go,2gov2.png,,,,,,,0,17,17,7,,,,,,,,,,,,,,,,,,,,,,,,,185.7324829379795,186.7351557179354,186.7015878399834,None,space,186.7015878399834,None,0.41954079805873334,,,,,,,,,,,,,,,,,8,001,2021_Dec_01_1947,psychophysics_project,2021.2.3,59.784642413582766,
nonsalient,nogo,2nogo.png,,,,,,,0,18,18,10,,,,,,,,,,,,,,,,,,,,,,,,,187.1695171749452,188.1723127529258,188.13894164795056,190.14418805297464,None,188.13894164795056,None,,,,,,,,,,,,,,,,,,8,001,2021_Dec_01_1947,psychophysics_project,2021.2.3,59.784642413582766,
salient,nogo,2nogov2.png,,,,,,,0,19,19,17,,,,,,,,,,,,,,,,,,,,,,,,,191.16366906499024,192.16616730298847,192.1494820449734,194.15491991792805,None,192.1494820449734,191.16366906499024,,,,,,,,,,,,,,,,,,8,001,2021_Dec_01_1947,psychophysics_project,2021.2.3,59.784642413582766,
,,,,,,,,,,,,,,,,,,,,,,,,,,,,,,,,,,,,,,,,,,,,,195.1576327929506,None,space,59.41300987498835,195.1576327929506,None,,,,,,,,,,,8,001,2021_Dec_01_1947,psychophysics_project,2021.2.3,59.784642413582766,
nonsalient,,1nogo2.png,st,circle,,,,,,,,,0,0,0,2,,,,,,,,,,,,,,,,,,,,,,,,,,,,,,,,,,,254.63322652492207,255.63566687796265,255.6021476549795,257.60750806494616,257.60750806494616,None,right,1.7047365569742396,257.60750806494616,None,8,001,2021_Dec_01_1947,psychophysics_project,2021.2.3,59.784642413582766,
salient,,1nogov1.png,st,circle,,,,,,,,,0,1,1,6,,,,,,,,,,,,,,,,,,,,,,,,,,,,,,,,,,,259.36225826793816,260.36509558500256,260.3485016329214,262.3535973179387,262.3370085579809,None,right,3.907515777973458,262.3370085579809,None,8,001,2021_Dec_01_1947,psychophysics_project,2021.2.3,59.784642413582766,
nonsalient,,nonstr.png,nonst,rectangle,,,,,,,,,0,2,2,30,,,,,,,,,,,,,,,,,,,,,,,,,,,,,,,,,,,266.28105771297123,267.2836386729032,267.2667755879229,269.2724114879966,269.2724114879966,None,left,1.306624407065101,269.2724114879966,None,8,001,2021_Dec_01_1947,psychophysics_project,2021.2.3,59.784642413582766,
salient,,1nogov.png,st,circle,,,,,,,,,0,3,3,5,,,,,,,,,,,,,,,,,,,,,,,,,,,,,,,,,,,270.625520742964,271.6284874629928,271.6118221830111,273.61714064795524,273.60052391292993,None,left,1.4375866269692779,273.60052391292993,None,8,001,2021_Dec_01_1947,psychophysics_project,2021.2.3,59.784642413582766,
nonsalient,,1nogo.png,st,circle,,,,,,,,,0,4,4,0,,,,,,,,,,,,,,,,,,,,,,,,,,,,,,,,,,,275.08770331996493,276.0901565379463,276.0735872379737,278.0788759329589,278.06214213499334,None,right,1.1783914070110768,278.06214213499334,None,8,001,2021_Dec_01_1947,psychophysics_project,2021.2.3,59.784642413582766,
nonsalient,,1go.png,st,rectangle,,,,,,,,,0,5,5,10,,,,,,,,,,,,,,,,,,,,,,,,,,,,,,,,,,,279.2824062599102,280.28503457293846,280.268317147973,282.27356510295067,282.27356510295067,None,right,1.2654993569012731,282.27356510295067,None,8,001,2021_Dec_01_1947,psychophysics_project,2021.2.3,59.784642413582766,
nonsalient,,1nogo4.png,st,circle,,,,,,,,,0,6,6,4,,,,,,,,,,,,,,,,,,,,,,,,,,,,,,,,,,,283.5770195350051,284.57962502294686,284.5630397599889,286.5684471100103,286.55182725796476,None,right,1.476850987994112,286.55182725796476,None,8,001,2021_Dec_01_1947,psychophysics_project,2021.2.3,59.784642413582766,
salient,,nonstrv4.png,nonst,rectangle,,,,,,,,,0,7,7,39,,,,,,,,,,,,,,,,,,,,,,,,,,,,,,,,,,,288.07326384994667,289.0750830299221,289.0583134429762,291.06377239490394,291.06377239490394,None,left,0.6630737850209698,291.06377239490394,None,8,001,2021_Dec_01_1947,psychophysics_project,2021.2.3,59.784642413582766,
nonsalient,,nonstc1.png,nonst,circle,,,,,,,,,0,8,8,21,,,,,,,,,,,,,,,,,,,,,,,,,,,,,,,,,,,291.76568582991604,292.76820822793525,292.7514763280051,294.75695733795874,294.74019221495837,None,left,0.8217909670202062,294.74019221495837,None,8,001,2021_Dec_01_1947,psychophysics_project,2021.2.3,59.784642413582766,
salient,,nonstrv3.png,nonst,rectangle,,,,,,,,,0,9,9,38,,,,,,,,,,,,,,,,,,,,,,,,,,,,,,,,,,,295.60906535491813,296.61181168293115,296.5950881629251,298.600513207959,298.600513207959,None,right,0.5886257219826803,298.600513207959,None,8,001,2021_Dec_01_1947,psychophysics_project,2021.2.3,59.784642413582766,
salient,,1nogov4.png,st,circle,,,,,,,,,0,10,10,9,,,,,,,,,,,,,,,,,,,,,,,,,,,,,,,,,,,299.2356544729555,300.2381428600056,300.2047554629389,302.2101576999994,302.2101576999994,None,right,0.5584672749973834,302.2101576999994,None,8,001,2021_Dec_01_1947,psychophysics_project,2021.2.3,59.784642413582766,
salient,,1gov4.png,st,rectangle,,,,,,,,,0,11,11,19,,,,,,,,,,,,,,,,,,,,,,,,,,,,,,,,,,,302.81176733993925,303.8146490479121,303.7976041549118,305.803131707944,305.803131707944,None,right,0.49719459703192115,305.803131707944,None,8,001,2021_Dec_01_1947,psychophysics_project,2021.2.3,59.784642413582766,
salient,,nonstcv.png,nonst,circle,,,,,,,,,0,12,12,25,,,,,,,,,,,,,,,,,,,,,,,,,,,,,,,,,,,306.3378081379924,307.3405181829585,307.32375296298414,309.3292885000119,309.3126741949236,None,right,0.42755889194086194,309.3126741949236,None,8,001,2021_Dec_01_1947,psychophysics_project,2021.2.3,59.784642413582766,
nonsalient,,nonstr4.png,nonst,rectangle,,,,,,,,,0,13,13,34,,,,,,,,,,,,,,,,,,,,,,,,,,,,,,,,,,,309.78060963295866,310.78314794495236,310.7496698528994,312.7550837179879,312.7550837179879,None,right,0.7786821300396696,312.7550837179879,None,8,001,2021_Dec_01_1947,psychophysics_project,2021.2.3,59.784642413582766,
nonsalient,,nonstr1.png,nonst,rectangle,,,,,,,,,0,14,14,31,,,,,,,,,,,,,,,,,,,,,,,,,,,,,,,,,,,313.57385098491795,314.5766396149993,314.5431017728988,316.548431262956,316.548431262956,None,right,0.8931085920194164,316.548431262956,None,8,001,2021_Dec_01_1947,psychophysics_project,2021.2.3,59.784642413582766,
nonsalient,,nonstr3.png,nonst,rectangle,,,,,,,,,0,15,15,33,,,,,,,,,,,,,,,,,,,,,,,,,,,,,,,,,,,317.48402641993016,318.4871323329862,318.47040200792253,320.47566916490905,320.47566916490905,None,right,1.6112385879969224,320.47566916490905,None,8,001,2021_Dec_01_1947,psychophysics_project,2021.2.3,59.784642413582766,
nonsalient,,nonstc.png,nonst,circle,,,,,,,,,0,16,16,20,,,,,,,,,,,,,,,,,,,,,,,,,,,,,,,,,,,322.12979429995175,323.13289591996,323.11589194997214,325.12128048797604,325.12128048797604,None,left,1.2937236530706286,325.12128048797604,None,8,001,2021_Dec_01_1947,psychophysics_project,2021.2.3,59.784642413582766,
nonsalient,,nonstr2.png,nonst,rectangle,,,,,,,,,0,17,17,32,,,,,,,,,,,,,,,,,,,,,,,,,,,,,,,,,,,326.4583826329326,327.46103053796105,327.4444406979019,329.44952259992715,329.44952259992715,None,left,0.9368313330924138,329.44952259992715,None,8,001,2021_Dec_01_1947,psychophysics_project,2021.2.3,59.784642413582766,
nonsalient,,1go3.png,st,rectangle,,,,,,,,,0,18,18,13,,,,,,,,,,,,,,,,,,,,,,,,,,,,,,,,,,,330.4357485229848,331.4384206079412,331.42143762495834,333.4268407149939,333.41011417796835,None,right,0.7720681700157002,333.41011417796835,None,8,001,2021_Dec_01_1947,psychophysics_project,2021.2.3,59.784642413582766,
salient,,nonstcv1.png,nonst,circle,,,,,,,,,0,19,19,26,,,,,,,,,,,,,,,,,,,,,,,,,,,,,,,,,,,334.2291452449281,335.23177113500424,335.19835121301,337.2035736379912,337.2035736379912,None,right,0.878066307050176,337.2035736379912,None,8,001,2021_Dec_01_1947,psychophysics_project,2021.2.3,59.784642413582766,
salient,,nonstcv2.png,nonst,circle,,,,,,,,,0,20,20,27,,,,,,,,,,,,,,,,,,,,,,,,,,,,,,,,,,,338.12272834801115,339.1253688799916,339.0920097179478,341.0973261028994,341.0973261028994,None,right,0.6858788169920444,341.0973261028994,None,8,001,2021_Dec_01_1947,psychophysics_project,2021.2.3,59.784642413582766,
salient,,1nogov2.png,st,circle,,,,,,,,,0,21,21,7,,,,,,,,,,,,,,,,,,,,,,,,,,,,,,,,,,,341.83291528292466,342.8353666749317,342.8020125149051,344.80717988999095,344.80717988999095,None,right,0.8530404099728912,344.80717988999095,None,8,001,2021_Dec_01_1947,psychophysics_project,2021.2.3,59.784642413582766,
nonsalient,,nonstc2.png,nonst,circle,,,,,,,,,0,22,22,22,,,,,,,,,,,,,,,,,,,,,,,,,,,,,,,,,,,345.70962236996274,346.7123542779591,346.6956230700016,348.70110605994705,348.70110605994705,None,left,0.7035370720550418,348.70110605994705,None,8,001,2021_Dec_01_1947,psychophysics_project,2021.2.3,59.784642413582766,
salient,,nonstcv3.png,nonst,circle,,,,,,,,,0,23,23,28,,,,,,,,,,,,,,,,,,,,,,,,,,,,,,,,,,,349.45288995292503,350.45581157994457,350.43916146294214,352.4442481949227,352.4442481949227,None,left,0.8544585270574316,352.4442481949227,None,8,001,2021_Dec_01_1947,psychophysics_project,2021.2.3,59.784642413582766,
salient,,1gov.png,st,rectangle,,,,,,,,,0,24,24,15,,,,,,,,,,,,,,,,,,,,,,,,,,,,,,,,,,,353.3468647879781,354.34934539790265,354.31606315798126,356.32132906490006,356.32132906490006,None,right,1.1766470150323585,356.32132906490006,None,8,001,2021_Dec_01_1947,psychophysics_project,2021.2.3,59.784642413582766,
nonsalient,,1go4.png,st,rectangle,,,,,,,,,0,25,25,14,,,,,,,,,,,,,,,,,,,,,,,,,,,,,,,,,,,357.54121685994323,358.5438570929691,358.5104117830051,360.51586241996847,360.51586241996847,None,left,1.0355712649179623,360.51586241996847,None,8,001,2021_Dec_01_1947,psychophysics_project,2021.2.3,59.784642413582766,
salient,,nonstrv.png,nonst,rectangle,,,,,,,,,0,26,26,35,,,,,,,,,,,,,,,,,,,,,,,,,,,,,,,,,,,361.5854372449685,362.58809704496525,362.554666512995,364.56003233999945,364.56003233999945,None,left,0.5951194330118597,364.56003233999945,None,8,001,2021_Dec_01_1947,psychophysics_project,2021.2.3,59.784642413582766,
nonsalient,,nonstc4.png,nonst,circle,,,,,,,,,0,27,27,24,,,,,,,,,,,,,,,,,,,,,,,,,,,,,,,,,,,365.19506097293925,366.1977712099906,366.1643570649903,368.169712599949,368.169712599949,None,right,0.6383484330726787,368.169712599949,None,8,001,2021_Dec_01_1947,psychophysics_project,2021.2.3,59.784642413582766,
salient,,nonstcv4.png,nonst,circle,,,,,,,,,0,28,28,29,,,,,,,,,,,,,,,,,,,,,,,,,,,,,,,,,,,368.85527439496946,369.8575891779037,369.84081341989804,371.846195452963,371.846195452963,None,left,0.44253526790998876,371.846195452963,None,8,001,2021_Dec_01_1947,psychophysics_project,2021.2.3,59.784642413582766,
nonsalient,,1nogo1.png,st,circle,,,,,,,,,0,29,29,1,,,,,,,,,,,,,,,,,,,,,,,,,,,,,,,,,,,372.3308169749798,373.33336196490563,373.31667352991644,375.3220437800046,375.3220437800046,None,right,0.2944950400851667,375.3220437800046,None,8,001,2021_Dec_01_1947,psychophysics_project,2021.2.3,59.784642413582766,
nonsalient,,1go1.png,st,rectangle,,,,,,,,,0,30,30,11,,,,,,,,,,,,,,,,,,,,,,,,,,,,,,,,,,,375.6564754679566,376.6589437829098,376.64231056999415,378.64771435491275,378.631141257938,None,left,0.35621663508936763,378.631141257938,None,8,001,2021_Dec_01_1947,psychophysics_project,2021.2.3,59.784642413582766,
nonsalient,,1nogo3.png,st,circle,,,,,,,,,0,31,31,3,,,,,,,,,,,,,,,,,,,,,,,,,,,,,,,,,,,379.03223689994775,380.0346775749931,380.0011890679598,382.00653188000433,382.00653188000433,None,left,0.6766846850514412,382.00653188000433,None,8,001,2021_Dec_01_1947,psychophysics_project,2021.2.3,59.784642413582766,
salient,,1nogov3.png,st,circle,,,,,,,,,0,32,32,8,,,,,,,,,,,,,,,,,,,,,,,,,,,,,,,,,,,382.725187719916,383.72797843790613,383.6944043979747,385.69991783995647,385.69991783995647,None,left,0.6218889569863677,385.69991783995647,None,8,001,2021_Dec_01_1947,psychophysics_project,2021.2.3,59.784642413582766,
nonsalient,,nonstc3.png,nonst,circle,,,,,,,,,0,33,33,23,,,,,,,,,,,,,,,,,,,,,,,,,,,,,,,,,,,386.36839588498697,387.37104552797973,387.3540979929967,389.35952019295655,389.3428445099853,None,right,0.7673173850635067,389.3428445099853,None,8,001,2021_Dec_01_1947,psychophysics_project,2021.2.3,59.784642413582766,
salient,,1gov1.png,st,rectangle,,,,,,,,,0,34,34,16,,,,,,,,,,,,,,,,,,,,,,,,,,,,,,,,,,,390.144946974935,391.14787978795357,391.13090774801094,393.13636319793295,393.13636319793295,None,left,0.27214289002586156,393.13636319793295,None,8,001,2021_Dec_01_1947,psychophysics_project,2021.2.3,59.784642413582766,
salient,,1gov3.png,st,rectangle,,,,,,,,,0,35,35,18,,,,,,,,,,,,,,,,,,,,,,,,,,,,,,,,,,,393.4538079829654,394.45649103296455,394.4231922349427,396.4289012729423,396.4289012729423,None,left,0.2798921950161457,396.4289012729423,None,8,001,2021_Dec_01_1947,psychophysics_project,2021.2.3,59.784642413582766,
salient,,nonstrv1.png,nonst,rectangle,,,,,,,,,0,36,36,36,,,,,,,,,,,,,,,,,,,,,,,,,,,,,,,,,,,396.7460476029664,397.74888504797127,397.71520980494097,399.7193303689128,399.7193303689128,None,left,0.25982159201521426,399.7193303689128,None,8,001,2021_Dec_01_1947,psychophysics_project,2021.2.3,59.784642413582766,
nonsalient,,1go2.png,st,rectangle,,,,,,,,,0,37,37,12,,,,,,,,,,,,,,,,,,,,,,,,,,,,,,,,,,,400.02092256990727,401.02342891297303,401.00739419297315,403.01285131298937,403.01285131298937,None,left,0.254367555025965,403.01285131298937,None,8,001,2021_Dec_01_1947,psychophysics_project,2021.2.3,59.784642413582766,
salient,,nonstrv2.png,nonst,rectangle,,,,,,,,,0,38,38,37,,,,,,,,,,,,,,,,,,,,,,,,,,,,,,,,,,,403.3124457478989,404.31556539493613,404.2814582339488,406.2870287079131,406.2870287079131,None,left,0.003037962014786899,406.2870287079131,None,8,001,2021_Dec_01_1947,psychophysics_project,2021.2.3,59.784642413582766,
salient,,1gov2.png,st,rectangle,,,,,,,,,0,39,39,17,,,,,,,,,,,,,,,,,,,,,,,,,,,,,,,,,,,406.3371181349503,407.33980205794796,407.323079062975,409.3295341680059,409.3295341680059,None,left,0.21334223495796323,409.3295341680059,None,8,001,2021_Dec_01_1947,psychophysics_project,2021.2.3,59.784642413582766,
