condition,task,stim_file,type,shape,trials.thisRepN,trials.thisTrialN,trials.thisN,trials.thisIndex,trials_2.thisRepN,trials_2.thisTrialN,trials_2.thisN,trials_2.thisIndex,trials_3.thisRepN,trials_3.thisTrialN,trials_3.thisN,trials_3.thisIndex,text.started,text.stopped,key_resp.keys,key_resp.rt,key_resp.started,key_resp.stopped,image.started,image.stopped,text2.started,text2.stopped,key_resp_2.keys,key_resp_2.started,key_resp_2.stopped,key_resp_2.rt,text_3.started,text_3.stopped,key_resp_4.keys,key_resp_4.rt,key_resp_4.started,key_resp_4.stopped,text_2.started,text_2.stopped,image_2.started,image_2.stopped,key_resp_3.keys,key_resp_3.started,key_resp_3.stopped,key_resp_3.rt,text_6.started,text_6.stopped,key_resp_6.keys,key_resp_6.rt,key_resp_6.started,key_resp_6.stopped,text_4.started,text_4.stopped,image_3.started,image_3.stopped,text_5.started,text_5.stopped,key_resp_5.keys,key_resp_5.rt,key_resp_5.started,key_resp_5.stopped,participant,session,date,expName,psychopyVersion,frameRate,
,,,,,,,,,,,,,,,,,12.722047561081126,None,space,18.295571337104775,12.722047561081126,None,,,,,,,,,,,,,,,,,,,,,,,,,,,,,,,,,,,,,,,2,001,2021_Dec_01_1411,psychophysics_project,2021.2.3,59.89867900218623,
nonsalient,nogo,1nogo3.png,,,0,0,0,13,,,,,,,,,,,,,,,32.074466568999924,34.07973212108482,31.10370573203545,32.107011354062706,None,32.074466568999924,None,,,,,,,,,,,,,,,,,,,,,,,,,,,,,,,,2,001,2021_Dec_01_1411,psychophysics_project,2021.2.3,59.89867900218623,
nonsalient,nogo,1nogo2.png,,,0,1,1,12,,,,,,,,,,,,,,,36.051472244085744,38.05573029804509,35.06699326902162,36.06840938900132,None,36.051472244085744,None,,,,,,,,,,,,,,,,,,,,,,,,,,,,,,,,2,001,2021_Dec_01_1411,psychophysics_project,2021.2.3,59.89867900218623,
salient,nogo,1nogov3.png,,,0,2,2,18,,,,,,,,,,,,,,,40.04470793600194,42.05089081102051,39.06175030907616,40.06120071699843,None,40.04470793600194,None,,,,,,,,,,,,,,,,,,,,,,,,,,,,,,,,2,001,2021_Dec_01_1411,psychophysics_project,2021.2.3,59.89867900218623,
salient,go,1gov4.png,,,0,3,3,9,,,,,,,,,,,,,,,44.056402726098895,None,43.070255334023386,44.07320421398617,space,44.056402726098895,None,0.5971382450079545,,,,,,,,,,,,,,,,,,,,,,,,,,,,,,,2,001,2021_Dec_01_1411,psychophysics_project,2021.2.3,59.89867900218623,
nonsalient,go,1go4.png,,,0,4,4,4,,,,,,,,,,,,,,,45.67739575402811,None,44.691457019071095,45.694087089039385,space,45.67739575402811,None,0.5248595929006115,,,,,,,,,,,,,,,,,,,,,,,,,,,,,,,2,001,2021_Dec_01_1411,psychophysics_project,2021.2.3,59.89867900218623,
salient,nogo,1nogov4.png,,,0,5,5,19,,,,,,,,,,,,,,,47.21466300403699,49.219921084004454,46.24558372609317,47.24820620601531,None,47.21466300403699,None,,,,,,,,,,,,,,,,,,,,,,,,,,,,,,,,2,001,2021_Dec_01_1411,psychophysics_project,2021.2.3,59.89867900218623,
nonsalient,go,1go1.png,,,0,6,6,1,,,,,,,,,,,,,,,51.20883134903852,None,50.239467281033285,51.242079514078796,space,51.20883134903852,50.239467281033285,0.5691691449610516,,,,,,,,,,,,,,,,,,,,,,,,,,,,,,,2,001,2021_Dec_01_1411,psychophysics_project,2021.2.3,59.89867900218623,
salient,go,1gov3.png,,,0,7,7,8,,,,,,,,,,,,,,,52.79623497603461,None,51.827309899032116,52.829771719058044,space,52.79623497603461,None,0.5953056550351903,,,,,,,,,,,,,,,,,,,,,,,,,,,,,,,2,001,2021_Dec_01_1411,psychophysics_project,2021.2.3,59.89867900218623,
nonsalient,nogo,1nogo.png,,,0,8,8,10,,,,,,,,,,,,,,,54.41722414107062,56.42277125408873,53.43145686609205,54.43405193905346,None,54.41722414107062,None,,,,,,,,,,,,,,,,,,,,,,,,,,,,,,,,2,001,2021_Dec_01_1411,psychophysics_project,2021.2.3,59.89867900218623,
nonsalient,nogo,1nogo1.png,,,0,9,9,11,,,,,,,,,,,,,,,58.41134320909623,60.41659994900692,57.44197747402359,58.44415238103829,None,58.41134320909623,57.44197747402359,,,,,,,,,,,,,,,,,,,,,,,,,,,,,,,,2,001,2021_Dec_01_1411,psychophysics_project,2021.2.3,59.89867900218623,
salient,nogo,1nogov1.png,,,0,10,10,16,,,,,,,,,,,,,,,62.42207812599372,64.42757967405487,61.436063936096616,62.438683609012514,None,62.42207812599372,61.436063936096616,,,,,,,,,,,,,,,,,,,,,,,,,,,,,,,,2,001,2021_Dec_01_1411,psychophysics_project,2021.2.3,59.89867900218623,
nonsalient,nogo,1nogo4.png,,,0,11,11,14,,,,,,,,,,,,,,,66.41602638899349,68.42136785108596,65.4467271460453,66.44939908909146,None,66.41602638899349,65.4467271460453,,,,,,,,,,,,,,,,,,,,,,,,,,,,,,,,2,001,2021_Dec_01_1411,psychophysics_project,2021.2.3,59.89867900218623,
salient,go,1gov1.png,,,0,12,12,6,,,,,,,,,,,,,,,70.40992151899263,None,69.4407270560041,70.44352901400998,space,70.40992151899263,69.4407270560041,0.4902947699883953,,,,,,,,,,,,,,,,,,,,,,,,,,,,,,,2,001,2021_Dec_01_1411,psychophysics_project,2021.2.3,59.89867900218623,
salient,go,1gov2.png,,,0,13,13,7,,,,,,,,,,,,,,,71.91405400400981,None,70.94486842106562,71.9473831410287,space,71.91405400400981,None,0.5566960119176656,,,,,,,,,,,,,,,,,,,,,,,,,,,,,,,2,001,2021_Dec_01_1411,psychophysics_project,2021.2.3,59.89867900218623,
nonsalient,go,1go.png,,,0,14,14,0,,,,,,,,,,,,,,,73.4848380460171,None,72.51582726102788,73.51832442102022,space,73.4848380460171,None,0.5449074370553717,,,,,,,,,,,,,,,,,,,,,,,,,,,,,,,2,001,2021_Dec_01_1411,psychophysics_project,2021.2.3,59.89867900218623,
salient,nogo,1nogov2.png,,,0,15,15,17,,,,,,,,,,,,,,,75.0557101710001,77.0610148140695,74.069950689096,75.07240705401637,None,75.0557101710001,None,,,,,,,,,,,,,,,,,,,,,,,,,,,,,,,,2,001,2021_Dec_01_1411,psychophysics_project,2021.2.3,59.89867900218623,
nonsalient,go,1go2.png,,,0,16,16,2,,,,,,,,,,,,,,,79.04967770609073,None,78.08055184606928,79.0829515090445,space,79.04967770609073,78.08055184606928,0.5163203800329939,,,,,,,,,,,,,,,,,,,,,,,,,,,,,,,2,001,2021_Dec_01_1411,psychophysics_project,2021.2.3,59.89867900218623,
nonsalient,go,1go3.png,,,0,17,17,3,,,,,,,,,,,,,,,80.5871497290209,None,79.60123647400178,80.60398399899714,space,80.5871497290209,None,0.5921931980410591,,,,,,,,,,,,,,,,,,,,,,,,,,,,,,,2,001,2021_Dec_01_1411,psychophysics_project,2021.2.3,59.89867900218623,
salient,nogo,1nogov.png,,,0,18,18,15,,,,,,,,,,,,,,,82.2082756140735,84.213736526086,81.22229850606527,82.22494037402794,None,82.2082756140735,None,,,,,,,,,,,,,,,,,,,,,,,,,,,,,,,,2,001,2021_Dec_01_1411,psychophysics_project,2021.2.3,59.89867900218623,
salient,go,1gov.png,,,0,19,19,5,,,,,,,,,,,,,,,86.21901628107298,None,85.23312333598733,86.23554216104094,space,86.21901628107298,85.23312333598733,0.45263104198966175,,,,,,,,,,,,,,,,,,,,,,,,,,,,,,,2,001,2021_Dec_01_1411,psychophysics_project,2021.2.3,59.89867900218623,
,,,,,,,,,,,,,,,,,,,,,,,,,,,,,,,86.70282780507114,None,space,8.368280512047932,86.70282780507114,None,,,,,,,,,,,,,,,,,,,,,,,,,2,001,2021_Dec_01_1411,psychophysics_project,2021.2.3,59.89867900218623,
nonsalient,nogo,2nogo4.png,,,,,,,0,0,0,14,,,,,,,,,,,,,,,,,,,,,,,,,95.11011608398985,96.11196314101107,96.0951835490996,98.10057236603461,None,96.0951835490996,None,,,,,,,,,,,,,,,,,,2,001,2021_Dec_01_1411,psychophysics_project,2021.2.3,59.89867900218623,
nonsalient,nogo,2nogo1.png,,,,,,,0,1,1,11,,,,,,,,,,,,,,,,,,,,,,,,,99.12018216401339,100.12264589907136,100.10595603403635,102.11144887900446,None,100.10595603403635,None,,,,,,,,,,,,,,,,,,2,001,2021_Dec_01_1411,psychophysics_project,2021.2.3,59.89867900218623,
salient,nogo,2nogov.png,,,,,,,0,2,2,15,,,,,,,,,,,,,,,,,,,,,,,,,103.11399813101161,104.11673965107184,104.10006960399915,106.1053861110704,None,104.10006960399915,None,,,,,,,,,,,,,,,,,,2,001,2021_Dec_01_1411,psychophysics_project,2021.2.3,59.89867900218623,
salient,go,2gov.png,,,,,,,0,3,3,5,,,,,,,,,,,,,,,,,,,,,,,,,107.124967286014,108.12734967109282,108.11078544904012,None,space,108.11078544904012,None,0.5134493500227109,,,,,,,,,,,,,,,,,2,001,2021_Dec_01_1411,psychophysics_project,2021.2.3,59.89867900218623,
salient,nogo,2nogov1.png,,,,,,,0,4,4,16,,,,,,,,,,,,,,,,,,,,,,,,,108.66237912105862,109.66490160406101,109.64811765600462,111.65339195902925,None,109.64811765600462,None,,,,,,,,,,,,,,,,,,2,001,2021_Dec_01_1411,psychophysics_project,2021.2.3,59.89867900218623,
salient,nogo,2nogov3.png,,,,,,,0,5,5,18,,,,,,,,,,,,,,,,,,,,,,,,,112.67301468609367,113.67548704100773,113.65879591100384,115.66343223198783,None,113.65879591100384,112.67301468609367,,,,,,,,,,,,,,,,,,2,001,2021_Dec_01_1411,psychophysics_project,2021.2.3,59.89867900218623,
salient,go,2gov4.png,,,,,,,0,6,6,9,,,,,,,,,,,,,,,,,,,,,,,,,116.68247800599784,117.68516310909763,117.66892798407935,None,space,117.66892798407935,116.68247800599784,0.551385956001468,,,,,,,,,,,,,,,,,2,001,2021_Dec_01_1411,psychophysics_project,2021.2.3,59.89867900218623,
nonsalient,go,2go.png,,,,,,,0,7,7,0,,,,,,,,,,,,,,,,,,,,,,,,,118.27001769607887,119.27270972402766,119.25597949908115,None,space,119.25597949908115,None,0.4513066520448774,,,,,,,,,,,,,,,,,2,001,2021_Dec_01_1411,psychophysics_project,2021.2.3,59.89867900218623,
salient,nogo,2nogov4.png,,,,,,,0,8,8,19,,,,,,,,,,,,,,,,,,,,,,,,,119.7418034960283,120.74432063905988,120.72722250409424,122.73319190100301,None,120.72722250409424,None,,,,,,,,,,,,,,,,,,2,001,2021_Dec_01_1411,psychophysics_project,2021.2.3,59.89867900218623,
nonsalient,go,2go1.png,,,,,,,0,9,9,1,,,,,,,,,,,,,,,,,,,,,,,,,123.75243407103699,124.75504677405115,124.73895740602165,None,space,124.73895740602165,123.75243407103699,0.46221451193559915,,,,,,,,,,,,,,,,,2,001,2021_Dec_01_1411,psychophysics_project,2021.2.3,59.89867900218623,
nonsalient,nogo,2nogo3.png,,,,,,,0,10,10,13,,,,,,,,,,,,,,,,,,,,,,,,,125.23984581104014,126.24226672400255,126.2259574290365,128.2309489090694,None,126.2259574290365,None,,,,,,,,,,,,,,,,,,2,001,2021_Dec_01_1411,psychophysics_project,2021.2.3,59.89867900218623,
salient,go,2gov2.png,,,,,,,0,11,11,7,,,,,,,,,,,,,,,,,,,,,,,,,129.25022738904227,130.25308229902294,130.2364565760363,None,space,130.2364565760363,129.25022738904227,0.5651181649882346,,,,,,,,,,,,,,,,,2,001,2021_Dec_01_1411,psychophysics_project,2021.2.3,59.89867900218623,
nonsalient,go,2go3.png,,,,,,,0,12,12,3,,,,,,,,,,,,,,,,,,,,,,,,,130.8379639260238,131.84072252898477,131.82397445105016,None,space,131.82397445105016,None,0.45135065307840705,,,,,,,,,,,,,,,,,2,001,2021_Dec_01_1411,psychophysics_project,2021.2.3,59.89867900218623,
nonsalient,nogo,2nogo.png,,,,,,,0,13,13,10,,,,,,,,,,,,,,,,,,,,,,,,,132.325552016031,133.32818074407987,133.29459025105461,135.2998985190643,None,133.29459025105461,None,,,,,,,,,,,,,,,,,,2,001,2021_Dec_01_1411,psychophysics_project,2021.2.3,59.89867900218623,
salient,nogo,2nogov2.png,,,,,,,0,14,14,17,,,,,,,,,,,,,,,,,,,,,,,,,136.31934636400547,137.3220204639947,137.30544222902972,139.31080153898802,None,137.30544222902972,136.31934636400547,,,,,,,,,,,,,,,,,,2,001,2021_Dec_01_1411,psychophysics_project,2021.2.3,59.89867900218623,
nonsalient,go,2go2.png,,,,,,,0,15,15,2,,,,,,,,,,,,,,,,,,,,,,,,,140.33010495605413,141.33277983905282,141.29934758401942,None,space,141.29934758401942,140.33010495605413,0.47061203804332763,,,,,,,,,,,,,,,,,2,001,2021_Dec_01_1411,psychophysics_project,2021.2.3,59.89867900218623,
nonsalient,nogo,2nogo2.png,,,,,,,0,16,16,12,,,,,,,,,,,,,,,,,,,,,,,,,141.81744852103293,142.82013094902504,142.78662616899237,144.7919735860778,None,142.78662616899237,None,,,,,,,,,,,,,,,,,,2,001,2021_Dec_01_1411,psychophysics_project,2021.2.3,59.89867900218623,
salient,go,2gov1.png,,,,,,,0,17,17,6,,,,,,,,,,,,,,,,,,,,,,,,,145.8115257290192,146.81417018105276,146.79756474599708,None,space,146.79756474599708,145.8115257290192,0.4097573399776593,,,,,,,,,,,,,,,,,2,001,2021_Dec_01_1411,psychophysics_project,2021.2.3,59.89867900218623,
salient,go,2gov3.png,,,,,,,0,18,18,8,,,,,,,,,,,,,,,,,,,,,,,,,147.24870603403542,148.251197979087,148.23475767101627,None,space,148.23475767101627,None,0.4164567799307406,,,,,,,,,,,,,,,,,2,001,2021_Dec_01_1411,psychophysics_project,2021.2.3,59.89867900218623,
nonsalient,go,2go4.png,,,,,,,0,19,19,4,,,,,,,,,,,,,,,,,,,,,,,,,148.68581210100092,149.6883901390247,149.65520277409814,None,space,149.65520277409814,None,0.4149152369936928,,,,,,,,,,,,,,,,,2,001,2021_Dec_01_1411,psychophysics_project,2021.2.3,59.89867900218623,
,,,,,,,,,,,,,,,,,,,,,,,,,,,,,,,,,,,,,,,,,,,,,150.08961265103426,None,space,55.375969820073806,150.08961265103426,None,,,,,,,,,,,2,001,2021_Dec_01_1411,psychophysics_project,2021.2.3,59.89867900218623,
nonsalient,,nonstc4.png,nonst,circle,,,,,,,,,0,0,0,24,,,,,,,,,,,,,,,,,,,,,,,,,,,,,,,,,,,205.5209508810658,206.52350953605492,206.5055640040664,208.5121306910878,208.5121306910878,None,right,2.7412948050769046,208.5121306910878,None,2,001,2021_Dec_01_1411,psychophysics_project,2021.2.3,59.89867900218623,
nonsalient,,nonstc.png,nonst,circle,,,,,,,,,0,1,1,20,,,,,,,,,,,,,,,,,,,,,,,,,,,,,,,,,,,211.30300448904745,212.30555929406546,212.2890376310097,214.2942583890399,214.27781273098662,None,left,1.893440673011355,214.27781273098662,None,2,001,2021_Dec_01_1411,psychophysics_project,2021.2.3,59.89867900218623,
nonsalient,,1nogo2.png,st,circle,,,,,,,,,0,2,2,2,,,,,,,,,,,,,,,,,,,,,,,,,,,,,,,,,,,216.2161833490245,217.21819743409287,217.1853308910504,219.19071016903035,219.19071016903035,None,left,0.5660677070263773,219.19071016903035,None,2,001,2021_Dec_01_1411,psychophysics_project,2021.2.3,59.89867900218623,
nonsalient,,1go1.png,st,rectangle,,,,,,,,,0,3,3,11,,,,,,,,,,,,,,,,,,,,,,,,,,,,,,,,,,,219.79232706606854,220.7949590960052,220.77821836899966,222.78366740909405,222.78366740909405,None,left,0.42377945501357317,222.78366740909405,None,2,001,2021_Dec_01_1411,psychophysics_project,2021.2.3,59.89867900218623,
nonsalient,,1nogo3.png,st,circle,,,,,,,,,0,4,4,3,,,,,,,,,,,,,,,,,,,,,,,,,,,,,,,,,,,223.25158622907475,224.25435177108739,224.2207254189998,226.22608099400532,226.22608099400532,None,right,0.29094470699783415,226.22608099400532,None,2,001,2021_Dec_01_1411,psychophysics_project,2021.2.3,59.89867900218623,
salient,,nonstrv4.png,nonst,rectangle,,,,,,,,,0,5,5,39,,,,,,,,,,,,,,,,,,,,,,,,,,,,,,,,,,,226.55927104200236,227.56315889908,227.5463234341005,229.55166405404452,229.53494677098934,None,right,1.0701348700094968,229.53494677098934,None,2,001,2021_Dec_01_1411,psychophysics_project,2021.2.3,59.89867900218623,
salient,,1gov.png,st,rectangle,,,,,,,,,0,6,6,15,,,,,,,,,,,,,,,,,,,,,,,,,,,,,,,,,,,230.65354360407218,231.65748607402202,231.64072058605962,233.64608407602645,233.6292455260409,None,right,0.4522463650209829,233.6292455260409,None,2,001,2021_Dec_01_1411,psychophysics_project,2021.2.3,59.89867900218623,
salient,,nonstcv1.png,nonst,circle,,,,,,,,,0,7,7,26,,,,,,,,,,,,,,,,,,,,,,,,,,,,,,,,,,,234.13062190602068,235.13332550402265,235.11643605399877,237.1221749940887,237.1052226740867,None,left,0.41826574003789574,237.1052226740867,None,2,001,2021_Dec_01_1411,psychophysics_project,2021.2.3,59.89867900218623,
salient,,nonstrv3.png,nonst,rectangle,,,,,,,,,0,8,8,38,,,,,,,,,,,,,,,,,,,,,,,,,,,,,,,,,,,237.5731366960099,238.57577236404177,238.5425026990706,240.5478492010152,240.5478492010152,None,right,0.3630444600712508,240.5478492010152,None,2,001,2021_Dec_01_1411,psychophysics_project,2021.2.3,59.89867900218623,
nonsalient,,nonstc3.png,nonst,circle,,,,,,,,,0,9,9,23,,,,,,,,,,,,,,,,,,,,,,,,,,,,,,,,,,,240.94889661599882,241.95053395302966,241.93368351098616,243.93998876109254,243.93998876109254,None,right,0.4686812419677153,243.93998876109254,None,2,001,2021_Dec_01_1411,psychophysics_project,2021.2.3,59.89867900218623,
salient,,nonstcv3.png,nonst,circle,,,,,,,,,0,10,10,28,,,,,,,,,,,,,,,,,,,,,,,,,,,,,,,,,,,244.45838926604483,245.46108206408098,245.4274433440296,247.43290110607632,247.43290110607632,None,left,0.2837516600266099,247.43290110607632,None,2,001,2021_Dec_01_1411,psychophysics_project,2021.2.3,59.89867900218623,
nonsalient,,nonstr2.png,nonst,rectangle,,,,,,,,,0,11,11,32,,,,,,,,,,,,,,,,,,,,,,,,,,,,,,,,,,,247.75026671402156,248.75303546909709,248.73567598103546,250.7416068490129,250.7416068490129,None,right,0.38980013504624367,250.7416068490129,None,2,001,2021_Dec_01_1411,psychophysics_project,2021.2.3,59.89867900218623,
nonsalient,,nonstr1.png,nonst,rectangle,,,,,,,,,0,12,12,31,,,,,,,,,,,,,,,,,,,,,,,,,,,,,,,,,,,251.17611694603693,252.17879932106007,252.1453459560871,254.15070642100181,254.15070642100181,None,left,0.6220010049873963,254.15070642100181,None,2,001,2021_Dec_01_1411,psychophysics_project,2021.2.3,59.89867900218623,
salient,,1gov4.png,st,rectangle,,,,,,,,,0,13,13,19,,,,,,,,,,,,,,,,,,,,,,,,,,,,,,,,,,,254.81918831903022,255.8220528610982,255.8052411110839,257.8106063710293,257.8106063710293,None,left,0.39665680297184736,257.8106063710293,None,2,001,2021_Dec_01_1411,psychophysics_project,2021.2.3,59.89867900218623,
salient,,nonstcv4.png,nonst,circle,,,,,,,,,0,14,14,29,,,,,,,,,,,,,,,,,,,,,,,,,,,,,,,,,,,258.24513021402527,259.24761375400703,259.231104516075,261.2365952640539,261.2365952640539,None,left,0.37630098999943584,261.2365952640539,None,2,001,2021_Dec_01_1411,psychophysics_project,2021.2.3,59.89867900218623,
salient,,1gov2.png,st,rectangle,,,,,,,,,0,15,15,17,,,,,,,,,,,,,,,,,,,,,,,,,,,,,,,,,,,261.65415155899245,262.6567224659957,262.6401201590197,264.6454810940195,264.6454810940195,None,right,0.44660366501193494,264.6454810940195,None,2,001,2021_Dec_01_1411,psychophysics_project,2021.2.3,59.89867900218623,
nonsalient,,1nogo4.png,st,circle,,,,,,,,,0,16,16,4,,,,,,,,,,,,,,,,,,,,,,,,,,,,,,,,,,,265.13015937409364,266.13278387102764,266.1160492739873,268.12136312399525,268.10473785409704,None,right,0.580313081969507,268.10473785409704,None,2,001,2021_Dec_01_1411,psychophysics_project,2021.2.3,59.89867900218623,
nonsalient,,1nogo1.png,st,circle,,,,,,,,,0,17,17,1,,,,,,,,,,,,,,,,,,,,,,,,,,,,,,,,,,,268.7228688860778,269.7258043860784,269.7089710540604,271.71428053407,271.6976784890285,None,right,0.43317053001374006,271.6976784890285,None,2,001,2021_Dec_01_1411,psychophysics_project,2021.2.3,59.89867900218623,
salient,,nonstcv2.png,nonst,circle,,,,,,,,,0,18,18,27,,,,,,,,,,,,,,,,,,,,,,,,,,,,,,,,,,,272.1657665260136,273.16822809109,273.1514804410981,275.1568217240274,275.1568217240274,None,right,0.4727692629676312,275.1568217240274,None,2,001,2021_Dec_01_1411,psychophysics_project,2021.2.3,59.89867900218623,
salient,,1nogov.png,st,circle,,,,,,,,,0,19,19,5,,,,,,,,,,,,,,,,,,,,,,,,,,,,,,,,,,,275.67487877607346,276.67778121400625,276.66096105601173,278.6662244510371,278.6497561890865,None,left,0.2981941399630159,278.6497561890865,None,2,001,2021_Dec_01_1411,psychophysics_project,2021.2.3,59.89867900218623,
salient,,1nogov2.png,st,circle,,,,,,,,,0,20,20,7,,,,,,,,,,,,,,,,,,,,,,,,,,,,,,,,,,,278.98372116405517,279.9861804310931,279.9698107710574,281.9753119860543,281.9753119860543,None,right,0.4593392269453034,281.9753119860543,None,2,001,2021_Dec_01_1411,psychophysics_project,2021.2.3,59.89867900218623,
salient,,nonstrv.png,nonst,rectangle,,,,,,,,,0,21,21,35,,,,,,,,,,,,,,,,,,,,,,,,,,,,,,,,,,,282.4765051690629,283.47917061904445,283.4622807940468,285.46796301403083,285.46796301403083,None,left,0.4434838400920853,285.46796301403083,None,2,001,2021_Dec_01_1411,psychophysics_project,2021.2.3,59.89867900218623,
salient,,nonstrv1.png,nonst,rectangle,,,,,,,,,0,22,22,36,,,,,,,,,,,,,,,,,,,,,,,,,,,,,,,,,,,285.9523185760481,286.95515442907345,286.9382799040759,288.94371121400036,288.94371121400036,None,right,0.42953911796212196,288.94371121400036,None,2,001,2021_Dec_01_1411,psychophysics_project,2021.2.3,59.89867900218623,
nonsalient,,nonstr.png,nonst,rectangle,,,,,,,,,0,23,23,30,,,,,,,,,,,,,,,,,,,,,,,,,,,,,,,,,,,289.4116766710067,290.4143652539933,290.3975688240025,292.4028578660218,292.38566385407466,None,left,1.0832349399570376,292.38566385407466,None,2,001,2021_Dec_01_1411,psychophysics_project,2021.2.3,59.89867900218623,
salient,,1nogov3.png,st,circle,,,,,,,,,0,24,24,8,,,,,,,,,,,,,,,,,,,,,,,,,,,,,,,,,,,293.5059856410371,294.5085218810709,294.49179994908627,296.49728133599274,296.49728133599274,None,left,0.4633518300252035,296.49728133599274,None,2,001,2021_Dec_01_1411,psychophysics_project,2021.2.3,59.89867900218623,
nonsalient,,1go2.png,st,rectangle,,,,,,,,,0,25,25,12,,,,,,,,,,,,,,,,,,,,,,,,,,,,,,,,,,,296.9986616810784,298.00116695603356,297.98471071606036,299.98980757407844,299.97317358106375,None,right,0.3512895720778033,299.97317358106375,None,2,001,2021_Dec_01_1411,psychophysics_project,2021.2.3,59.89867900218623,
salient,,1nogov4.png,st,circle,,,,,,,,,0,26,26,9,,,,,,,,,,,,,,,,,,,,,,,,,,,,,,,,,,,300.3743299091002,301.3771065690089,301.3604246090399,303.3655987409875,303.34878078103065,None,right,0.418391885003075,303.34878078103065,None,2,001,2021_Dec_01_1411,psychophysics_project,2021.2.3,59.89867900218623,
nonsalient,,1go3.png,st,rectangle,,,,,,,,,0,27,27,13,,,,,,,,,,,,,,,,,,,,,,,,,,,,,,,,,,,303.8169380760519,304.8195057840785,304.8026172789978,306.8080224139849,306.7913046440808,None,right,0.40233791701029986,306.7913046440808,None,2,001,2021_Dec_01_1411,psychophysics_project,2021.2.3,59.89867900218623,
salient,,1gov1.png,st,rectangle,,,,,,,,,0,28,28,16,,,,,,,,,,,,,,,,,,,,,,,,,,,,,,,,,,,307.24259825609624,308.24518979399,308.2284859759966,310.2339020590298,310.217209176044,None,left,0.3619922280777246,310.217209176044,None,2,001,2021_Dec_01_1411,psychophysics_project,2021.2.3,59.89867900218623,
nonsalient,,1go.png,st,rectangle,,,,,,,,,0,29,29,10,,,,,,,,,,,,,,,,,,,,,,,,,,,,,,,,,,,310.61833260103595,311.6210196510656,311.6041617890587,313.60958216607105,313.59252410102636,None,right,0.4570523099973798,313.59252410102636,None,2,001,2021_Dec_01_1411,psychophysics_project,2021.2.3,59.89867900218623,
salient,,nonstcv.png,nonst,circle,,,,,,,,,0,30,30,25,,,,,,,,,,,,,,,,,,,,,,,,,,,,,,,,,,,314.09419751900714,315.0965408490738,315.0800140739884,317.0854367890861,317.0688686290523,None,left,0.39337309799157083,317.0688686290523,None,2,001,2021_Dec_01_1411,psychophysics_project,2021.2.3,59.89867900218623,
salient,,1nogov1.png,st,circle,,,,,,,,,0,31,31,6,,,,,,,,,,,,,,,,,,,,,,,,,,,,,,,,,,,317.50342137599364,318.5060786009999,318.472483596066,320.47800360107794,320.47800360107794,None,left,0.33583475707564503,320.47800360107794,None,2,001,2021_Dec_01_1411,psychophysics_project,2021.2.3,59.89867900218623,
salient,,1gov3.png,st,rectangle,,,,,,,,,0,32,32,18,,,,,,,,,,,,,,,,,,,,,,,,,,,,,,,,,,,320.86236250109505,321.86473043402657,321.8314633840928,323.83658688899595,323.83658688899595,None,left,0.36624675791244954,323.83658688899595,None,2,001,2021_Dec_01_1411,psychophysics_project,2021.2.3,59.89867900218623,
nonsalient,,nonstc1.png,nonst,circle,,,,,,,,,0,33,33,21,,,,,,,,,,,,,,,,,,,,,,,,,,,,,,,,,,,324.2380314760376,325.2406422740314,325.22402189904824,327.22885635099374,327.22885635099374,None,left,0.6617276149336249,327.22885635099374,None,2,001,2021_Dec_01_1411,psychophysics_project,2021.2.3,59.89867900218623,
nonsalient,,nonstr3.png,nonst,rectangle,,,,,,,,,0,34,34,33,,,,,,,,,,,,,,,,,,,,,,,,,,,,,,,,,,,327.93119779403787,328.9339390459936,328.9171729440568,330.9225788860349,330.9225788860349,None,right,0.3636364800622687,330.9225788860349,None,2,001,2021_Dec_01_1411,psychophysics_project,2021.2.3,59.89867900218623,
nonsalient,,1go4.png,st,rectangle,,,,,,,,,0,35,35,14,,,,,,,,,,,,,,,,,,,,,,,,,,,,,,,,,,,331.32362491905224,332.3263284789864,332.30949866899755,334.31495749100577,334.29819494404364,None,left,0.3510169100482017,334.29819494404364,None,2,001,2021_Dec_01_1411,psychophysics_project,2021.2.3,59.89867900218623,
nonsalient,,nonstc2.png,nonst,circle,,,,,,,,,0,36,36,22,,,,,,,,,,,,,,,,,,,,,,,,,,,,,,,,,,,334.6992909910623,335.70186492905486,335.6687373610912,337.67377418407705,337.67377418407705,None,left,0.4011408380465582,337.67377418407705,None,2,001,2021_Dec_01_1411,psychophysics_project,2021.2.3,59.89867900218623,
nonsalient,,nonstr4.png,nonst,rectangle,,,,,,,,,0,37,37,34,,,,,,,,,,,,,,,,,,,,,,,,,,,,,,,,,,,338.12467036407907,339.127824499039,339.09431531105656,341.09975457401015,341.09975457401015,None,left,0.6138809699332342,341.09975457401015,None,2,001,2021_Dec_01_1411,psychophysics_project,2021.2.3,59.89867900218623,
salient,,nonstrv2.png,nonst,rectangle,,,,,,,,,0,38,38,37,,,,,,,,,,,,,,,,,,,,,,,,,,,,,,,,,,,341.7514320909977,342.7540230359882,342.73703636904247,344.74277007905766,344.7259742360329,None,right,0.8494809400290251,344.7259742360329,None,2,001,2021_Dec_01_1411,psychophysics_project,2021.2.3,59.89867900218623,
nonsalient,,1nogo.png,st,circle,,,,,,,,,0,39,39,0,,,,,,,,,,,,,,,,,,,,,,,,,,,,,,,,,,,345.61179037904367,346.6136629550019,346.59655727702193,348.60312043107115,348.60312043107115,None,left,0.7050331899663433,348.60312043107115,None,2,001,2021_Dec_01_1411,psychophysics_project,2021.2.3,59.89867900218623,
