condition,task,stim_file,type,shape,trials.thisRepN,trials.thisTrialN,trials.thisN,trials.thisIndex,trials_2.thisRepN,trials_2.thisTrialN,trials_2.thisN,trials_2.thisIndex,trials_3.thisRepN,trials_3.thisTrialN,trials_3.thisN,trials_3.thisIndex,text.started,text.stopped,key_resp.keys,key_resp.rt,key_resp.started,key_resp.stopped,image.started,image.stopped,text2.started,text2.stopped,key_resp_2.keys,key_resp_2.rt,key_resp_2.started,key_resp_2.stopped,text_3.started,text_3.stopped,key_resp_4.keys,key_resp_4.rt,key_resp_4.started,key_resp_4.stopped,text_2.started,text_2.stopped,image_2.started,image_2.stopped,key_resp_3.keys,key_resp_3.rt,key_resp_3.started,key_resp_3.stopped,text_6.started,text_6.stopped,key_resp_6.keys,key_resp_6.rt,key_resp_6.started,key_resp_6.stopped,text_4.started,text_4.stopped,image_3.started,image_3.stopped,text_5.started,text_5.stopped,key_resp_5.keys,key_resp_5.rt,key_resp_5.started,key_resp_5.stopped,participant,session,date,expName,psychopyVersion,frameRate,
,,,,,,,,,,,,,,,,,13.20508237706963,None,space,28.34952521196101,13.20508237706963,None,,,,,,,,,,,,,,,,,,,,,,,,,,,,,,,,,,,,,,,6,001,2021_Dec_01_1443,psychophysics_project,2021.2.3,59.775076573534754,
nonsalient,go,1go1.png,,,0,0,0,1,,,,,,,,,,,,,,,42.62753425503615,None,41.64210775005631,42.644652042072266,space,0.6812770280521363,42.62753425503615,None,,,,,,,,,,,,,,,,,,,,,,,,,,,,,,,6,001,2021_Dec_01_1443,psychophysics_project,2021.2.3,59.775076573534754,
salient,nogo,1nogov1.png,,,0,1,1,16,,,,,,,,,,,,,,,44.33255553699564,46.33803182700649,43.3473002120154,44.34902880201116,None,,44.33255553699564,None,,,,,,,,,,,,,,,,,,,,,,,,,,,,,,,6,001,2021_Dec_01_1443,psychophysics_project,2021.2.3,59.775076573534754,
nonsalient,go,1go3.png,,,0,2,2,3,,,,,,,,,,,,,,,48.3431611120468,None,47.35713268700056,48.35972514702007,space,0.442672147997655,48.3431611120468,47.35713268700056,,,,,,,,,,,,,,,,,,,,,,,,,,,,,,,6,001,2021_Dec_01_1443,psychophysics_project,2021.2.3,59.775076573534754,
nonsalient,nogo,1nogo4.png,,,0,3,3,14,,,,,,,,,,,,,,,49.81380954501219,51.81913704704493,48.82791866501793,49.83044788008556,None,,49.81380954501219,None,,,,,,,,,,,,,,,,,,,,,,,,,,,,,,,6,001,2021_Dec_01_1443,psychophysics_project,2021.2.3,59.775076573534754,
salient,nogo,1nogov.png,,,0,4,4,15,,,,,,,,,,,,,,,53.82444712205324,55.829939037095755,52.83699740609154,53.84142877010163,None,,53.82444712205324,52.83699740609154,,,,,,,,,,,,,,,,,,,,,,,,,,,,,,,6,001,2021_Dec_01_1443,psychophysics_project,2021.2.3,59.775076573534754,
salient,nogo,1nogov4.png,,,0,5,5,19,,,,,,,,,,,,,,,57.835283352062106,59.84062603209168,56.84937432501465,57.851848307065666,None,,57.835283352062106,56.84937432501465,,,,,,,,,,,,,,,,,,,,,,,,,,,,,,,6,001,2021_Dec_01_1443,psychophysics_project,2021.2.3,59.775076573534754,
nonsalient,nogo,1nogo3.png,,,0,6,6,13,,,,,,,,,,,,,,,61.845827422104776,63.8512932700105,60.86234770005103,61.86279668007046,None,,61.845827422104776,60.86234770005103,,,,,,,,,,,,,,,,,,,,,,,,,,,,,,,6,001,2021_Dec_01_1443,psychophysics_project,2021.2.3,59.775076573534754,
salient,go,1gov4.png,,,0,7,7,9,,,,,,,,,,,,,,,65.85658553708345,None,64.87057185207959,65.87327682506293,space,0.4894716569688171,65.85658553708345,64.87057185207959,,,,,,,,,,,,,,,,,,,,,,,,,,,,,,,6,001,2021_Dec_01_1443,psychophysics_project,2021.2.3,59.775076573534754,
salient,go,1gov2.png,,,0,8,8,7,,,,,,,,,,,,,,,67.36067145701963,None,66.39149887207896,67.39405086508486,space,0.48893437208607793,67.36067145701963,None,,,,,,,,,,,,,,,,,,,,,,,,,,,,,,,6,001,2021_Dec_01_1443,psychophysics_project,2021.2.3,59.775076573534754,
nonsalient,nogo,1nogo2.png,,,0,9,9,12,,,,,,,,,,,,,,,68.86465904710349,70.86995103000663,67.8953670670744,68.89827454008628,None,,68.86465904710349,None,,,,,,,,,,,,,,,,,,,,,,,,,,,,,,,6,001,2021_Dec_01_1443,psychophysics_project,2021.2.3,59.775076573534754,
nonsalient,go,1go4.png,,,0,10,10,4,,,,,,,,,,,,,,,72.85869312507566,None,71.88958592002746,72.89210303709842,space,0.4154564280761406,72.85869312507566,71.88958592002746,,,,,,,,,,,,,,,,,,,,,,,,,,,,,,,6,001,2021_Dec_01_1443,psychophysics_project,2021.2.3,59.775076573534754,
nonsalient,nogo,1nogo1.png,,,0,11,11,11,,,,,,,,,,,,,,,74.29585908504669,76.30126344505697,73.31006833200809,74.3126463900553,None,,74.29585908504669,None,,,,,,,,,,,,,,,,,,,,,,,,,,,,,,,6,001,2021_Dec_01_1443,psychophysics_project,2021.2.3,59.775076573534754,
salient,go,1gov3.png,,,0,12,12,8,,,,,,,,,,,,,,,78.2900366850663,None,77.32069512503222,78.32328858203255,space,0.3987343779299408,78.2900366850663,77.32069512503222,,,,,,,,,,,,,,,,,,,,,,,,,,,,,,,6,001,2021_Dec_01_1443,psychophysics_project,2021.2.3,59.775076573534754,
salient,go,1gov1.png,,,0,13,13,6,,,,,,,,,,,,,,,79.71042216010392,None,78.72444577002898,79.72711326007266,space,0.3815034549916163,79.71042216010392,None,,,,,,,,,,,,,,,,,,,,,,,,,,,,,,,6,001,2021_Dec_01_1443,psychophysics_project,2021.2.3,59.775076573534754,
nonsalient,go,1go2.png,,,0,14,14,2,,,,,,,,,,,,,,,81.11415772000328,None,80.12801207508892,81.13092557701748,space,0.3737036669626832,81.11415772000328,None,,,,,,,,,,,,,,,,,,,,,,,,,,,,,,,6,001,2021_Dec_01_1443,psychophysics_project,2021.2.3,59.775076573534754,
nonsalient,nogo,1nogo.png,,,0,15,15,10,,,,,,,,,,,,,,,82.50114837707952,84.5063769920962,81.53168885002378,82.53441147203557,None,,82.50114837707952,None,,,,,,,,,,,,,,,,,,,,,,,,,,,,,,,6,001,2021_Dec_01_1443,psychophysics_project,2021.2.3,59.775076573534754,
nonsalient,go,1go.png,,,0,16,16,0,,,,,,,,,,,,,,,86.49497092701495,None,85.52588834206108,86.52864422707353,space,0.4266663249582052,86.49497092701495,85.52588834206108,,,,,,,,,,,,,,,,,,,,,,,,,,,,,,,6,001,2021_Dec_01_1443,psychophysics_project,2021.2.3,59.775076573534754,
salient,nogo,1nogov2.png,,,0,17,17,17,,,,,,,,,,,,,,,87.94891342008486,89.95430790202226,86.9630984570831,87.96571457001846,None,,87.94891342008486,None,,,,,,,,,,,,,,,,,,,,,,,,,,,,,,,6,001,2021_Dec_01_1443,psychophysics_project,2021.2.3,59.775076573534754,
salient,nogo,1nogov3.png,,,0,18,18,18,,,,,,,,,,,,,,,91.95962577010505,93.9651741751004,90.97382044210099,91.9764913120307,None,,91.95962577010505,90.97382044210099,,,,,,,,,,,,,,,,,,,,,,,,,,,,,,,6,001,2021_Dec_01_1443,psychophysics_project,2021.2.3,59.775076573534754,
salient,go,1gov.png,,,0,19,19,5,,,,,,,,,,,,,,,95.95329312002286,None,94.98435413499828,95.9866314700339,space,0.4016636519227177,95.95329312002286,94.98435413499828,,,,,,,,,,,,,,,,,,,,,,,,,,,,,,,6,001,2021_Dec_01_1443,psychophysics_project,2021.2.3,59.775076573534754,
,,,,,,,,,,,,,,,,,,,,,,,,,,,,,,,96.3879618550418,None,space,7.468417885014787,96.3879618550418,None,,,,,,,,,,,,,,,,,,,,,,,,,6,001,2021_Dec_01_1443,psychophysics_project,2021.2.3,59.775076573534754,
nonsalient,nogo,2nogo2.png,,,,,,,0,0,0,12,,,,,,,,,,,,,,,,,,,,,,,,,103.90821118000895,104.91098996507935,104.87745489506051,None,space,0.3965006999205798,104.87745489506051,None,,,,,,,,,,,,,,,,,6,001,2021_Dec_01_1443,psychophysics_project,2021.2.3,59.775076573534754,
nonsalient,nogo,2nogo4.png,,,,,,,0,1,1,14,,,,,,,,,,,,,,,,,,,,,,,,,105.31213052209932,106.31471663003322,106.29805422702339,108.30329284502659,None,,106.29805422702339,None,,,,,,,,,,,,,,,,,6,001,2021_Dec_01_1443,psychophysics_project,2021.2.3,59.775076573534754,
nonsalient,go,2go4.png,,,,,,,0,2,2,4,,,,,,,,,,,,,,,,,,,,,,,,,109.32254014001228,110.32527348503936,110.30854791007005,None,space,0.4927827570354566,110.30854791007005,109.32254014001228,,,,,,,,,,,,,,,,,6,001,2021_Dec_01_1443,psychophysics_project,2021.2.3,59.775076573534754,
salient,nogo,2nogov.png,,,,,,,0,3,3,15,,,,,,,,,,,,,,,,,,,,,,,,,110.84352849202696,111.84601007506717,111.82940005499404,113.83479825709946,None,,111.82940005499404,None,,,,,,,,,,,,,,,,,6,001,2021_Dec_01_1443,psychophysics_project,2021.2.3,59.775076573534754,
nonsalient,go,2go2.png,,,,,,,0,4,4,2,,,,,,,,,,,,,,,,,,,,,,,,,114.85420522710774,115.85703779710457,115.84022147010546,None,space,0.6906425600172952,115.84022147010546,114.85420522710774,,,,,,,,,,,,,,,,,6,001,2021_Dec_01_1443,psychophysics_project,2021.2.3,59.775076573534754,
nonsalient,nogo,2nogo.png,,,,,,,0,5,5,10,,,,,,,,,,,,,,,,,,,,,,,,,116.57553842000198,117.57805955701042,117.54476000007708,119.5501992770005,None,,117.54476000007708,None,,,,,,,,,,,,,,,,,6,001,2021_Dec_01_1443,psychophysics_project,2021.2.3,59.775076573534754,
nonsalient,go,2go3.png,,,,,,,0,6,6,3,,,,,,,,,,,,,,,,,,,,,,,,,120.56941543705761,121.57227430504281,121.55558459204622,None,space,0.5316021220060065,121.55558459204622,120.56941543705761,,,,,,,,,,,,,,,,,6,001,2021_Dec_01_1443,psychophysics_project,2021.2.3,59.775076573534754,
salient,go,2gov3.png,,,,,,,0,7,7,8,,,,,,,,,,,,,,,,,,,,,,,,,122.12362714204937,123.12620549008716,123.1097050870303,None,space,0.7068113919813186,123.1097050870303,None,,,,,,,,,,,,,,,,,6,001,2021_Dec_01_1443,psychophysics_project,2021.2.3,59.775076573534754,
nonsalient,nogo,2nogo3.png,,,,,,,0,8,8,13,,,,,,,,,,,,,,,,,,,,,,,,,123.86078009009361,124.86302869208157,124.84614835004322,126.85266473703086,None,,124.84614835004322,None,,,,,,,,,,,,,,,,,6,001,2021_Dec_01_1443,psychophysics_project,2021.2.3,59.775076573534754,
salient,go,2gov2.png,,,,,,,0,9,9,7,,,,,,,,,,,,,,,,,,,,,,,,,127.87242753000464,128.8750224520918,128.85810365504585,None,space,0.44696817302610725,128.85810365504585,127.87242753000464,,,,,,,,,,,,,,,,,6,001,2021_Dec_01_1443,psychophysics_project,2021.2.3,59.775076573534754,
nonsalient,go,2go1.png,,,,,,,0,10,10,1,,,,,,,,,,,,,,,,,,,,,,,,,129.3428047070047,130.34518532501534,130.32889872509986,None,space,0.5015585969667882,130.32889872509986,None,,,,,,,,,,,,,,,,,6,001,2021_Dec_01_1443,psychophysics_project,2021.2.3,59.775076573534754,
salient,nogo,2nogov2.png,,,,,,,0,11,11,17,,,,,,,,,,,,,,,,,,,,,,,,,130.8802681650268,131.88305071205832,131.86628039507195,133.87029174203053,None,,131.86628039507195,None,,,,,,,,,,,,,,,,,6,001,2021_Dec_01_1443,psychophysics_project,2021.2.3,59.775076573534754,
salient,go,2gov1.png,,,,,,,0,12,12,6,,,,,,,,,,,,,,,,,,,,,,,,,134.89102673705202,135.89365334203467,135.8769275470404,None,space,0.4350016270764172,135.8769275470404,134.89102673705202,,,,,,,,,,,,,,,,,6,001,2021_Dec_01_1443,psychophysics_project,2021.2.3,59.775076573534754,
nonsalient,nogo,2nogo1.png,,,,,,,0,13,13,11,,,,,,,,,,,,,,,,,,,,,,,,,136.36147665209137,137.36410910007544,137.3476296350127,139.35313360008877,None,,137.3476296350127,None,,,,,,,,,,,,,,,,,6,001,2021_Dec_01_1443,psychophysics_project,2021.2.3,59.775076573534754,
nonsalient,go,2go.png,,,,,,,0,14,14,0,,,,,,,,,,,,,,,,,,,,,,,,,140.37145376810804,141.3749347400153,141.35827913705725,None,space,0.36334097501821816,141.35827913705725,140.37145376810804,,,,,,,,,,,,,,,,,6,001,2021_Dec_01_1443,psychophysics_project,2021.2.3,59.775076573534754,
salient,nogo,2nogov4.png,,,,,,,0,15,15,19,,,,,,,,,,,,,,,,,,,,,,,,,141.75960166705772,142.7621182820294,142.74529120710213,144.7507054900052,None,,142.74529120710213,None,,,,,,,,,,,,,,,,,6,001,2021_Dec_01_1443,psychophysics_project,2021.2.3,59.775076573534754,
salient,nogo,2nogov1.png,,,,,,,0,16,16,16,,,,,,,,,,,,,,,,,,,,,,,,,145.77016793505754,146.77261828503106,146.7559727920452,148.76132729207166,None,,146.7559727920452,145.77016793505754,,,,,,,,,,,,,,,,,6,001,2021_Dec_01_1443,psychophysics_project,2021.2.3,59.775076573534754,
salient,go,2gov.png,,,,,,,0,17,17,5,,,,,,,,,,,,,,,,,,,,,,,,,149.78072417201474,150.78337974008173,150.7666742100846,None,space,0.42470310197677463,150.7666742100846,149.78072417201474,,,,,,,,,,,,,,,,,6,001,2021_Dec_01_1443,psychophysics_project,2021.2.3,59.775076573534754,
salient,nogo,2nogov3.png,,,,,,,0,18,18,18,,,,,,,,,,,,,,,,,,,,,,,,,151.23446993005928,152.23739651509095,152.22078313701786,154.22614959499333,None,,152.22078313701786,None,,,,,,,,,,,,,,,,,6,001,2021_Dec_01_1443,psychophysics_project,2021.2.3,59.775076573534754,
salient,go,2gov4.png,,,,,,,0,19,19,9,,,,,,,,,,,,,,,,,,,,,,,,,155.24546036007814,156.24777663999703,156.23141291702632,None,space,0.31313879997469485,156.23141291702632,155.24546036007814,,,,,,,,,,,,,,,,,6,001,2021_Dec_01_1443,psychophysics_project,2021.2.3,59.775076573534754,
,,,,,,,,,,,,,,,,,,,,,,,,,,,,,,,,,,,,,,,,,,,,,156.5655307720881,None,space,20.175150595023297,156.5655307720881,None,,,,,,,,,,,6,001,2021_Dec_01_1443,psychophysics_project,2021.2.3,59.775076573534754,
nonsalient,,nonstr.png,nonst,rectangle,,,,,,,,,0,0,0,30,,,,,,,,,,,,,,,,,,,,,,,,,,,,,,,,,,,176.80297381209675,177.80560247204266,177.7722878200002,179.77774522500113,179.77774522500113,None,right,2.009261177969165,179.77774522500113,None,6,001,2021_Dec_01_1443,psychophysics_project,2021.2.3,59.775076573534754,
nonsalient,,nonstc3.png,nonst,circle,,,,,,,,,0,1,1,23,,,,,,,,,,,,,,,,,,,,,,,,,,,,,,,,,,,181.83306944707874,182.83582768507767,182.81908103008755,184.82424383005127,184.80781532509718,None,right,1.030619732919149,184.80781532509718,None,6,001,2021_Dec_01_1443,psychophysics_project,2021.2.3,59.775076573534754,
salient,,nonstrv.png,nonst,rectangle,,,,,,,,,0,2,2,35,,,,,,,,,,,,,,,,,,,,,,,,,,,,,,,,,,,185.8771302870009,186.87979138002265,186.86323434207588,188.86852032202296,188.85166799207218,None,left,0.5425913149956614,188.85166799207218,None,6,001,2021_Dec_01_1443,psychophysics_project,2021.2.3,59.775076573534754,
salient,,1gov1.png,st,rectangle,,,,,,,,,0,3,3,16,,,,,,,,,,,,,,,,,,,,,,,,,,,,,,,,,,,189.43681775708683,190.43940238503274,190.40594326204155,192.41125615208875,192.41125615208875,None,right,0.49476522696204484,192.41125615208875,None,6,001,2021_Dec_01_1443,psychophysics_project,2021.2.3,59.775076573534754,
salient,,nonstcv4.png,nonst,circle,,,,,,,,,0,4,4,29,,,,,,,,,,,,,,,,,,,,,,,,,,,,,,,,,,,192.94617279199883,193.94873846508563,193.93209081003442,195.93743990000803,195.93743990000803,None,left,0.599481911980547,195.93743990000803,None,6,001,2021_Dec_01_1443,psychophysics_project,2021.2.3,59.775076573534754,
salient,,1nogov4.png,st,circle,,,,,,,,,0,5,5,9,,,,,,,,,,,,,,,,,,,,,,,,,,,,,,,,,,,196.57245426008012,197.57530142006,197.55851399200037,199.56388340506237,199.56388340506237,None,right,0.4634247779613361,199.56388340506237,None,6,001,2021_Dec_01_1443,psychophysics_project,2021.2.3,59.775076573534754,
nonsalient,,nonstc1.png,nonst,circle,,,,,,,,,0,6,6,21,,,,,,,,,,,,,,,,,,,,,,,,,,,,,,,,,,,200.06522238708567,201.06781567703,201.0510485750856,203.05647173000034,203.03976813005283,None,left,0.4182809729827568,203.03976813005283,None,6,001,2021_Dec_01_1443,psychophysics_project,2021.2.3,59.775076573534754,
nonsalient,,1go.png,st,rectangle,,,,,,,,,0,7,7,10,,,,,,,,,,,,,,,,,,,,,,,,,,,,,,,,,,,203.50764788500965,204.51027245202567,204.476871485007,206.48165186704136,206.48165186704136,None,left,0.3997478230157867,206.48165186704136,None,6,001,2021_Dec_01_1443,psychophysics_project,2021.2.3,59.775076573534754,
salient,,nonstcv2.png,nonst,circle,,,,,,,,,0,8,8,27,,,,,,,,,,,,,,,,,,,,,,,,,,,,,,,,,,,206.91682056710124,207.91960051702335,207.90261319000274,209.90798673708923,209.90798673708923,None,right,0.33670519199222326,209.90798673708923,None,6,001,2021_Dec_01_1443,psychophysics_project,2021.2.3,59.775076573534754,
salient,,nonstrv2.png,nonst,rectangle,,,,,,,,,0,9,9,37,,,,,,,,,,,,,,,,,,,,,,,,,,,,,,,,,,,210.2916294510942,211.29498831008095,211.2616127600195,213.2670619400451,213.2670619400451,None,right,0.3475585429696366,213.2670619400451,None,6,001,2021_Dec_01_1443,psychophysics_project,2021.2.3,59.775076573534754,
nonsalient,,1go4.png,st,rectangle,,,,,,,,,0,10,10,14,,,,,,,,,,,,,,,,,,,,,,,,,,,,,,,,,,,213.65140578709543,214.65414256206714,214.63722770707682,216.64270807499997,216.6257933420129,None,left,0.6325965999858454,216.6257933420129,None,6,001,2021_Dec_01_1443,psychophysics_project,2021.2.3,59.775076573534754,
nonsalient,,1nogo3.png,st,circle,,,,,,,,,0,11,11,3,,,,,,,,,,,,,,,,,,,,,,,,,,,,,,,,,,,217.29447516205255,218.29705610708334,218.2803543000482,220.28584915504325,220.28584915504325,None,left,0.3504606500500813,220.28584915504325,None,6,001,2021_Dec_01_1443,psychophysics_project,2021.2.3,59.775076573534754,
salient,,1gov3.png,st,rectangle,,,,,,,,,0,12,12,18,,,,,,,,,,,,,,,,,,,,,,,,,,,,,,,,,,,220.67008599999826,221.67285274504684,221.65594118705485,223.66139614209533,223.66139614209533,None,right,0.40567032992839813,223.66139614209533,None,6,001,2021_Dec_01_1443,psychophysics_project,2021.2.3,59.775076573534754,
salient,,nonstcv1.png,nonst,circle,,,,,,,,,0,13,13,26,,,,,,,,,,,,,,,,,,,,,,,,,,,,,,,,,,,224.11287001508754,225.11525499203708,225.082051500096,227.087346307002,227.087346307002,None,right,0.3703185699414462,227.087346307002,None,6,001,2021_Dec_01_1443,psychophysics_project,2021.2.3,59.775076573534754,
salient,,nonstrv4.png,nonst,rectangle,,,,,,,,,0,14,14,39,,,,,,,,,,,,,,,,,,,,,,,,,,,,,,,,,,,227.5047052820446,228.50786279700696,228.49116850201972,230.4962904920103,230.47969419008587,None,left,0.27991211193148047,230.47969419008587,None,6,001,2021_Dec_01_1443,psychophysics_project,2021.2.3,59.775076573534754,
nonsalient,,nonstc2.png,nonst,circle,,,,,,,,,0,15,15,22,,,,,,,,,,,,,,,,,,,,,,,,,,,,,,,,,,,230.79732482507825,231.79994206503034,231.78303149505518,233.78851110709365,233.78851110709365,None,left,0.3108996630180627,233.78851110709365,None,6,001,2021_Dec_01_1443,psychophysics_project,2021.2.3,59.775076573534754,
salient,,1gov4.png,st,rectangle,,,,,,,,,0,16,16,19,,,,,,,,,,,,,,,,,,,,,,,,,,,,,,,,,,,234.13936145207845,235.14216531510465,235.12547802506015,237.13052839005832,237.13052839005832,None,right,0.28382343507837504,237.13052839005832,None,6,001,2021_Dec_01_1443,psychophysics_project,2021.2.3,59.775076573534754,
nonsalient,,1nogo1.png,st,circle,,,,,,,,,0,17,17,1,,,,,,,,,,,,,,,,,,,,,,,,,,,,,,,,,,,237.44825575209688,238.45093697705306,238.43420621706173,240.43975695199333,240.43975695199333,None,right,0.264196370029822,240.43975695199333,None,6,001,2021_Dec_01_1443,psychophysics_project,2021.2.3,59.775076573534754,
nonsalient,,1nogo4.png,st,circle,,,,,,,,,0,18,18,4,,,,,,,,,,,,,,,,,,,,,,,,,,,,,,,,,,,240.74046207999345,241.74306749203242,241.72656439710408,243.73191455204505,243.73191455204505,None,right,0.3367705220589414,243.73191455204505,None,6,001,2021_Dec_01_1443,psychophysics_project,2021.2.3,59.775076573534754,
nonsalient,,nonstr1.png,nonst,rectangle,,,,,,,,,0,19,19,31,,,,,,,,,,,,,,,,,,,,,,,,,,,,,,,,,,,244.116125266999,245.11876611202024,245.08523994707502,247.0906299049966,247.0906299049966,None,left,0.34000593004748225,247.0906299049966,None,6,001,2021_Dec_01_1443,psychophysics_project,2021.2.3,59.775076573534754,
nonsalient,,nonstc.png,nonst,circle,,,,,,,,,0,20,20,20,,,,,,,,,,,,,,,,,,,,,,,,,,,,,,,,,,,247.47513056499884,248.47770265000872,248.44425210705958,250.44974438205827,250.44974438205827,None,right,0.47479784197639674,250.44974438205827,None,6,001,2021_Dec_01_1443,psychophysics_project,2021.2.3,59.775076573534754,
salient,,1nogov1.png,st,circle,,,,,,,,,0,21,21,6,,,,,,,,,,,,,,,,,,,,,,,,,,,,,,,,,,,250.96779556700494,251.97047739010304,251.93712006206624,253.94224375509657,253.94224375509657,None,right,0.3550223730271682,253.94224375509657,None,6,001,2021_Dec_01_1443,psychophysics_project,2021.2.3,59.775076573534754,
salient,,1nogov.png,st,circle,,,,,,,,,0,22,22,5,,,,,,,,,,,,,,,,,,,,,,,,,,,,,,,,,,,254.34356349008158,255.3460958400974,255.3292552070925,257.3348460349953,257.3180007170886,None,left,0.31004112493246794,257.3180007170886,None,6,001,2021_Dec_01_1443,psychophysics_project,2021.2.3,59.775076573534754,
nonsalient,,nonstc4.png,nonst,circle,,,,,,,,,0,23,23,24,,,,,,,,,,,,,,,,,,,,,,,,,,,,,,,,,,,257.66901807207614,258.6715348820435,258.65493936510757,260.6604081870755,260.6604081870755,None,left,0.3631667250301689,260.6604081870755,None,6,001,2021_Dec_01_1443,psychophysics_project,2021.2.3,59.775076573534754,
nonsalient,,1nogo.png,st,circle,,,,,,,,,0,24,24,0,,,,,,,,,,,,,,,,,,,,,,,,,,,,,,,,,,,261.06125817704014,262.0640555070713,262.0472445720807,264.0525627770694,264.0525627770694,None,right,0.30663576698862016,264.0525627770694,None,6,001,2021_Dec_01_1443,psychophysics_project,2021.2.3,59.775076573534754,
nonsalient,,1go1.png,st,rectangle,,,,,,,,,0,25,25,11,,,,,,,,,,,,,,,,,,,,,,,,,,,,,,,,,,,264.4036913519958,265.4061404650565,265.3894524850184,267.39500648505054,267.37813834205735,None,right,0.23082010494545102,267.37813834205735,None,6,001,2021_Dec_01_1443,psychophysics_project,2021.2.3,59.775076573534754,
salient,,nonstcv.png,nonst,circle,,,,,,,,,0,26,26,25,,,,,,,,,,,,,,,,,,,,,,,,,,,,,,,,,,,267.6455819150433,268.6483331300551,268.63157220208086,270.63705438701436,270.63705438701436,None,right,0.22888887498993427,270.63705438701436,None,6,001,2021_Dec_01_1443,psychophysics_project,2021.2.3,59.775076573534754,
salient,,nonstrv3.png,nonst,rectangle,,,,,,,,,0,27,27,38,,,,,,,,,,,,,,,,,,,,,,,,,,,,,,,,,,,270.90441210509744,271.9068697250914,271.89019366702996,273.89562349999323,273.89562349999323,None,right,0.33295842295046896,273.89562349999323,None,6,001,2021_Dec_01_1443,psychophysics_project,2021.2.3,59.775076573534754,
nonsalient,,1nogo2.png,st,circle,,,,,,,,,0,28,28,2,,,,,,,,,,,,,,,,,,,,,,,,,,,,,,,,,,,274.2634725921089,275.26600643701386,275.2492822750937,277.2545085470192,277.2545085470192,None,right,0.28177884698379785,277.2545085470192,None,6,001,2021_Dec_01_1443,psychophysics_project,2021.2.3,59.775076573534754,
salient,,1gov.png,st,rectangle,,,,,,,,,0,29,29,15,,,,,,,,,,,,,,,,,,,,,,,,,,,,,,,,,,,277.57209936203435,278.57460322009865,278.5581523750443,280.56355165003333,280.56355165003333,None,right,0.37983272201381624,280.56355165003333,None,6,001,2021_Dec_01_1443,psychophysics_project,2021.2.3,59.775076573534754,
nonsalient,,nonstr2.png,nonst,rectangle,,,,,,,,,0,30,30,32,,,,,,,,,,,,,,,,,,,,,,,,,,,,,,,,,,,280.9814466050593,281.9839473500615,281.96706725202966,283.9726514820941,283.95587194210384,None,left,0.31412621191702783,283.95587194210384,None,6,001,2021_Dec_01_1443,psychophysics_project,2021.2.3,59.775076573534754,
nonsalient,,nonstr4.png,nonst,rectangle,,,,,,,,,0,31,31,34,,,,,,,,,,,,,,,,,,,,,,,,,,,,,,,,,,,284.3067058750894,285.3093423600076,285.292634345009,287.2982504920801,287.2982504920801,None,right,0.2965616500005126,287.2982504920801,None,6,001,2021_Dec_01_1443,psychophysics_project,2021.2.3,59.775076573534754,
salient,,nonstrv1.png,nonst,rectangle,,,,,,,,,0,32,32,36,,,,,,,,,,,,,,,,,,,,,,,,,,,,,,,,,,,287.6323635870358,288.63403593201656,288.6172720500035,290.62357244000304,290.60645579209086,None,right,0.41446936794091016,290.60645579209086,None,6,001,2021_Dec_01_1443,psychophysics_project,2021.2.3,59.775076573534754,
salient,,1nogov3.png,st,circle,,,,,,,,,0,33,33,8,,,,,,,,,,,,,,,,,,,,,,,,,,,,,,,,,,,291.0580664949957,292.0592644599965,292.04256976000033,294.0496013100492,294.0496013100492,None,left,0.2929530000546947,294.0496013100492,None,6,001,2021_Dec_01_1443,psychophysics_project,2021.2.3,59.775076573534754,
salient,,nonstcv3.png,nonst,circle,,,,,,,,,0,34,34,28,,,,,,,,,,,,,,,,,,,,,,,,,,,,,,,,,,,294.38398806005716,295.3864094570745,295.369706585072,297.3750667950371,297.3750667950371,None,left,0.39119309303350747,297.3750667950371,None,6,001,2021_Dec_01_1443,psychophysics_project,2021.2.3,59.775076573534754,
nonsalient,,1go3.png,st,rectangle,,,,,,,,,0,35,35,13,,,,,,,,,,,,,,,,,,,,,,,,,,,,,,,,,,,297.8094887920888,298.81213814008515,298.795473797014,300.79966498806607,300.79966498806607,None,left,0.4325026290025562,300.79966498806607,None,6,001,2021_Dec_01_1443,psychophysics_project,2021.2.3,59.775076573534754,
salient,,1nogov2.png,st,circle,,,,,,,,,0,36,36,7,,,,,,,,,,,,,,,,,,,,,,,,,,,,,,,,,,,301.26859460701235,302.271254447056,302.254528607009,304.2600549320923,304.2600549320923,None,right,0.1779081600252539,304.2600549320923,None,6,001,2021_Dec_01_1443,psychophysics_project,2021.2.3,59.775076573534754,
nonsalient,,1go2.png,st,rectangle,,,,,,,,,0,37,37,12,,,,,,,,,,,,,,,,,,,,,,,,,,,,,,,,,,,304.4772530150367,305.47998909500893,305.4634387620026,307.4686576999957,307.4519666850101,None,left,0.30766940291505307,307.4519666850101,None,6,001,2021_Dec_01_1443,psychophysics_project,2021.2.3,59.775076573534754,
salient,,1gov2.png,st,rectangle,,,,,,,,,0,38,38,17,,,,,,,,,,,,,,,,,,,,,,,,,,,,,,,,,,,307.8028853900032,308.8054606100777,308.77212887699716,310.7774470500881,310.7774470500881,None,right,0.2260056500090286,310.7774470500881,None,6,001,2021_Dec_01_1443,psychophysics_project,2021.2.3,59.775076573534754,
nonsalient,,nonstr3.png,nonst,rectangle,,,,,,,,,0,39,39,33,,,,,,,,,,,,,,,,,,,,,,,,,,,,,,,,,,,311.04488243500236,312.0475820970023,312.0141433450626,314.0194254820235,314.0194254820235,None,right,0.23784662003163248,314.0194254820235,None,6,001,2021_Dec_01_1443,psychophysics_project,2021.2.3,59.775076573534754,
