condition,task,stim_file,type,shape,trials.thisRepN,trials.thisTrialN,trials.thisN,trials.thisIndex,trials_2.thisRepN,trials_2.thisTrialN,trials_2.thisN,trials_2.thisIndex,trials_3.thisRepN,trials_3.thisTrialN,trials_3.thisN,trials_3.thisIndex,text.started,text.stopped,key_resp.keys,key_resp.rt,key_resp.started,key_resp.stopped,image.started,image.stopped,text2.started,text2.stopped,key_resp_2.keys,key_resp_2.rt,key_resp_2.started,key_resp_2.stopped,text_3.started,text_3.stopped,key_resp_4.keys,key_resp_4.rt,key_resp_4.started,key_resp_4.stopped,text_2.started,text_2.stopped,image_2.started,image_2.stopped,key_resp_3.keys,key_resp_3.started,key_resp_3.stopped,key_resp_3.rt,text_6.started,text_6.stopped,key_resp_6.keys,key_resp_6.rt,key_resp_6.started,key_resp_6.stopped,text_4.started,text_4.stopped,image_3.started,image_3.stopped,text_5.started,text_5.stopped,key_resp_5.keys,key_resp_5.rt,key_resp_5.started,key_resp_5.stopped,participant,session,date,expName,psychopyVersion,frameRate,
,,,,,,,,,,,,,,,,,12.784914057003334,None,space,21.012875866959803,12.784914057003334,None,,,,,,,,,,,,,,,,,,,,,,,,,,,,,,,,,,,,,,,7,001,2021_Dec_01_1450,psychophysics_project,2021.2.3,59.82086106319763,
nonsalient,go,1go4.png,,,0,0,0,4,,,,,,,,,,,,,,,34.87631251499988,None,33.890453852014616,34.89308387192432,space,0.41591027507092804,34.87631251499988,None,,,,,,,,,,,,,,,,,,,,,,,,,,,,,,,7,001,2021_Dec_01_1450,psychophysics_project,2021.2.3,59.82086106319763,
nonsalient,go,1go2.png,,,0,1,1,2,,,,,,,,,,,,,,,36.31378799502272,None,35.328904839931056,36.33032279193867,space,0.3833446829812601,36.31378799502272,None,,,,,,,,,,,,,,,,,,,,,,,,,,,,,,,7,001,2021_Dec_01_1450,psychophysics_project,2021.2.3,59.82086106319763,
nonsalient,nogo,1nogo3.png,,,0,2,2,13,,,,,,,,,,,,,,,37.71752566494979,39.72271783195902,36.73376152000856,37.7340032949578,None,,37.71752566494979,None,,,,,,,,,,,,,,,,,,,,,,,,,,,,,,,7,001,2021_Dec_01_1450,psychophysics_project,2021.2.3,59.82086106319763,
salient,nogo,1nogov1.png,,,0,3,3,16,,,,,,,,,,,,,,,41.72734456998296,43.732020281022415,40.741822646930814,41.74392335303128,None,,41.72734456998296,40.741822646930814,,,,,,,,,,,,,,,,,,,,,,,,,,,,,,,7,001,2021_Dec_01_1450,psychophysics_project,2021.2.3,59.82086106319763,
nonsalient,go,1go.png,,,0,4,4,0,,,,,,,,,,,,,,,45.73718268296216,None,44.751307678991,45.75424695201218,space,0.43772645003627986,45.73718268296216,44.751307678991,,,,,,,,,,,,,,,,,,,,,,,,,,,,,,,7,001,2021_Dec_01_1450,psychophysics_project,2021.2.3,59.82086106319763,
salient,go,1gov4.png,,,0,5,5,9,,,,,,,,,,,,,,,47.20861929201055,None,46.22231558803469,47.22531183692627,space,0.3800175479846075,47.20861929201055,None,,,,,,,,,,,,,,,,,,,,,,,,,,,,,,,7,001,2021_Dec_01_1450,psychophysics_project,2021.2.3,59.82086106319763,
salient,nogo,1nogov3.png,,,0,6,6,18,,,,,,,,,,,,,,,48.61203152500093,50.617332038935274,47.626073617022485,48.62857466295827,None,,48.61203152500093,None,,,,,,,,,,,,,,,,,,,,,,,,,,,,,,,7,001,2021_Dec_01_1450,psychophysics_project,2021.2.3,59.82086106319763,
nonsalient,go,1go1.png,,,0,7,7,1,,,,,,,,,,,,,,,52.62229827500414,None,51.63702966994606,52.63922243192792,space,0.38367643707897514,52.62229827500414,51.63702966994606,,,,,,,,,,,,,,,,,,,,,,,,,,,,,,,7,001,2021_Dec_01_1450,psychophysics_project,2021.2.3,59.82086106319763,
salient,nogo,1nogov4.png,,,0,8,8,19,,,,,,,,,,,,,,,54.02735520992428,56.03293412702624,53.040131505928,54.04425000201445,None,,54.02735520992428,None,,,,,,,,,,,,,,,,,,,,,,,,,,,,,,,7,001,2021_Dec_01_1450,psychophysics_project,2021.2.3,59.82086106319763,
salient,nogo,1nogov2.png,,,0,9,9,17,,,,,,,,,,,,,,,58.02150568203069,60.02687889698427,57.05234155699145,58.05446157197002,None,,58.02150568203069,57.05234155699145,,,,,,,,,,,,,,,,,,,,,,,,,,,,,,,7,001,2021_Dec_01_1450,psychophysics_project,2021.2.3,59.82086106319763,
nonsalient,go,1go3.png,,,0,10,10,3,,,,,,,,,,,,,,,62.032248956966214,None,61.04653454502113,62.04903305496555,space,0.41025310498662293,62.032248956966214,61.04653454502113,,,,,,,,,,,,,,,,,,,,,,,,,,,,,,,7,001,2021_Dec_01_1450,psychophysics_project,2021.2.3,59.82086106319763,
salient,go,1gov3.png,,,0,11,11,8,,,,,,,,,,,,,,,63.4527241300093,None,62.48344156995881,63.48625544202514,space,1.025472244946286,63.4527241300093,None,,,,,,,,,,,,,,,,,,,,,,,,,,,,,,,7,001,2021_Dec_01_1450,psychophysics_project,2021.2.3,59.82086106319763,
nonsalient,nogo,1nogo4.png,,,0,12,12,14,,,,,,,,,,,,,,,65.49168959702365,67.49689952703193,64.52219605492428,65.52502782503143,None,,65.49168959702365,None,,,,,,,,,,,,,,,,,,,,,,,,,,,,,,,7,001,2021_Dec_01_1450,psychophysics_project,2021.2.3,59.82086106319763,
nonsalient,nogo,1nogo.png,,,0,13,13,10,,,,,,,,,,,,,,,69.50244629499502,71.50798335694708,68.51625851192512,69.51886670500971,None,,69.50244629499502,68.51625851192512,,,,,,,,,,,,,,,,,,,,,,,,,,,,,,,7,001,2021_Dec_01_1450,psychophysics_project,2021.2.3,59.82086106319763,
nonsalient,nogo,1nogo2.png,,,0,14,14,12,,,,,,,,,,,,,,,73.49626761197578,75.5015688749263,72.52724725496955,73.52975018497091,None,,73.49626761197578,72.52724725496955,,,,,,,,,,,,,,,,,,,,,,,,,,,,,,,7,001,2021_Dec_01_1450,psychophysics_project,2021.2.3,59.82086106319763,
salient,nogo,1nogov.png,,,0,15,15,15,,,,,,,,,,,,,,,77.50683687499259,79.51218225702178,76.52095272997394,77.52359488699585,None,,77.50683687499259,76.52095272997394,,,,,,,,,,,,,,,,,,,,,,,,,,,,,,,7,001,2021_Dec_01_1450,psychophysics_project,2021.2.3,59.82086106319763,
salient,go,1gov.png,,,0,16,16,5,,,,,,,,,,,,,,,81.51761964196339,None,80.53163478698116,81.5343084349297,space,0.4125309279188514,81.51761964196339,80.53163478698116,,,,,,,,,,,,,,,,,,,,,,,,,,,,,,,7,001,2021_Dec_01_1450,psychophysics_project,2021.2.3,59.82086106319763,
salient,go,1gov1.png,,,0,17,17,6,,,,,,,,,,,,,,,82.95491036493331,None,81.96898114995565,82.97168832202442,space,0.3496897399891168,82.95491036493331,None,,,,,,,,,,,,,,,,,,,,,,,,,,,,,,,7,001,2021_Dec_01_1450,psychophysics_project,2021.2.3,59.82086106319763,
nonsalient,nogo,1nogo1.png,,,0,18,18,11,,,,,,,,,,,,,,,84.32516820693854,86.33043389196973,83.33913828001823,84.34196623496246,None,,84.32516820693854,None,,,,,,,,,,,,,,,,,,,,,,,,,,,,,,,7,001,2021_Dec_01_1450,psychophysics_project,2021.2.3,59.82086106319763,
salient,go,1gov2.png,,,0,19,19,7,,,,,,,,,,,,,,,88.31906111503486,None,87.34989658498671,88.35262179700658,space,0.4347313200123608,88.31906111503486,87.34989658498671,,,,,,,,,,,,,,,,,,,,,,,,,,,,,,,7,001,2021_Dec_01_1450,psychophysics_project,2021.2.3,59.82086106319763,
,,,,,,,,,,,,,,,,,,,,,,,,,,,,,,,88.78697914700024,None,space,10.829120835056528,88.78697914700024,None,,,,,,,,,,,,,,,,,,,,,,,,,7,001,2021_Dec_01_1450,psychophysics_project,2021.2.3,59.82086106319763,
salient,nogo,2nogov.png,,,,,,,0,0,0,15,,,,,,,,,,,,,,,,,,,,,,,,,99.6828926919261,100.68561776494607,100.66870930697769,102.67407410196029,None,100.66870930697769,None,,,,,,,,,,,,,,,,,,7,001,2021_Dec_01_1450,psychophysics_project,2021.2.3,59.82086106319763,
salient,go,2gov3.png,,,,,,,0,1,1,8,,,,,,,,,,,,,,,,,,,,,,,,,103.6768998169573,104.67940665199421,104.6627304200083,None,space,104.6627304200083,None,0.3899792250012979,,,,,,,,,,,,,,,,,7,001,2021_Dec_01_1450,psychophysics_project,2021.2.3,59.82086106319763,
nonsalient,nogo,2nogo4.png,,,,,,,0,2,2,14,,,,,,,,,,,,,,,,,,,,,,,,,105.09743374492973,106.10006635996979,106.066661896999,108.07191179494839,None,106.066661896999,None,,,,,,,,,,,,,,,,,,7,001,2021_Dec_01_1450,psychophysics_project,2021.2.3,59.82086106319763,
nonsalient,go,2go1.png,,,,,,,0,3,3,1,,,,,,,,,,,,,,,,,,,,,,,,,109.09119012695737,110.09405561699532,110.07731889002025,None,space,110.07731889002025,109.09119012695737,0.38053975999355316,,,,,,,,,,,,,,,,,7,001,2021_Dec_01_1450,psychophysics_project,2021.2.3,59.82086106319763,
salient,go,2gov2.png,,,,,,,0,4,4,7,,,,,,,,,,,,,,,,,,,,,,,,,110.49511887994595,111.49782132694963,111.48096007492859,None,space,111.48096007492859,None,0.36602610698901117,,,,,,,,,,,,,,,,,7,001,2021_Dec_01_1450,psychophysics_project,2021.2.3,59.82086106319763,
salient,nogo,2nogov1.png,,,,,,,0,5,5,16,,,,,,,,,,,,,,,,,,,,,,,,,111.88215576193761,112.88474568701349,112.86799997999333,114.87348455493338,None,112.86799997999333,None,,,,,,,,,,,,,,,,,,7,001,2021_Dec_01_1450,psychophysics_project,2021.2.3,59.82086106319763,
salient,go,2gov4.png,,,,,,,0,6,6,9,,,,,,,,,,,,,,,,,,,,,,,,,115.8930735749891,116.895584904938,116.878689795034,None,space,116.878689795034,115.8930735749891,0.42538576503284276,,,,,,,,,,,,,,,,,7,001,2021_Dec_01_1450,psychophysics_project,2021.2.3,59.82086106319763,
nonsalient,nogo,2nogo1.png,,,,,,,0,7,7,11,,,,,,,,,,,,,,,,,,,,,,,,,117.34664441994391,118.34938000992406,118.33255998697132,120.33792309998535,None,118.33255998697132,None,,,,,,,,,,,,,,,,,,7,001,2021_Dec_01_1450,psychophysics_project,2021.2.3,59.82086106319763,
salient,nogo,2nogov2.png,,,,,,,0,8,8,17,,,,,,,,,,,,,,,,,,,,,,,,,121.35744570195675,122.35996574000455,122.34343038697261,124.34870634495746,None,122.34343038697261,121.35744570195675,,,,,,,,,,,,,,,,,,7,001,2021_Dec_01_1450,psychophysics_project,2021.2.3,59.82086106319763,
nonsalient,go,2go.png,,,,,,,0,9,9,0,,,,,,,,,,,,,,,,,,,,,,,,,125.36805150494911,126.37094606703613,126.3539226949215,None,space,126.3539226949215,125.36805150494911,0.3634855931159109,,,,,,,,,,,,,,,,,7,001,2021_Dec_01_1450,psychophysics_project,2021.2.3,59.82086106319763,
nonsalient,nogo,2nogo2.png,,,,,,,0,10,10,12,,,,,,,,,,,,,,,,,,,,,,,,,126.75515675498173,127.75782917998731,127.74122778698802,129.74648879503366,None,127.74122778698802,None,,,,,,,,,,,,,,,,,,7,001,2021_Dec_01_1450,psychophysics_project,2021.2.3,59.82086106319763,
salient,go,2gov.png,,,,,,,0,11,11,5,,,,,,,,,,,,,,,,,,,,,,,,,130.76584181003273,131.76860973692965,131.7517851749435,None,space,131.7517851749435,130.76584181003273,0.41274152498226613,,,,,,,,,,,,,,,,,7,001,2021_Dec_01_1450,psychophysics_project,2021.2.3,59.82086106319763,
salient,nogo,2nogov4.png,,,,,,,0,12,12,19,,,,,,,,,,,,,,,,,,,,,,,,,132.2030171949882,133.205622629961,133.189038004959,135.19427203002851,None,133.189038004959,None,,,,,,,,,,,,,,,,,,7,001,2021_Dec_01_1450,psychophysics_project,2021.2.3,59.82086106319763,
nonsalient,go,2go2.png,,,,,,,0,13,13,2,,,,,,,,,,,,,,,,,,,,,,,,,136.2137668200303,137.21633561199997,137.18292685202323,None,space,137.18292685202323,136.2137668200303,0.4095324749359861,,,,,,,,,,,,,,,,,7,001,2021_Dec_01_1450,psychophysics_project,2021.2.3,59.82086106319763,
nonsalient,go,2go4.png,,,,,,,0,14,14,4,,,,,,,,,,,,,,,,,,,,,,,,,137.63450788496993,138.63681216002442,138.60354770696722,None,space,138.60354770696722,None,0.3736966649303213,,,,,,,,,,,,,,,,,7,001,2021_Dec_01_1450,psychophysics_project,2021.2.3,59.82086106319763,
nonsalient,nogo,2nogo.png,,,,,,,0,15,15,10,,,,,,,,,,,,,,,,,,,,,,,,,139.0212902049534,140.02384279994294,140.0071555649629,142.01259519194718,None,140.0071555649629,None,,,,,,,,,,,,,,,,,,7,001,2021_Dec_01_1450,psychophysics_project,2021.2.3,59.82086106319763,
salient,nogo,2nogov3.png,,,,,,,0,16,16,18,,,,,,,,,,,,,,,,,,,,,,,,,143.03189879702404,144.03458348196,144.01807479502168,146.02335970499553,None,144.01807479502168,143.03189879702404,,,,,,,,,,,,,,,,,,7,001,2021_Dec_01_1450,psychophysics_project,2021.2.3,59.82086106319763,
nonsalient,go,2go3.png,,,,,,,0,17,17,3,,,,,,,,,,,,,,,,,,,,,,,,,147.04258891695645,148.04537975497078,148.02870531997178,None,space,148.02870531997178,147.04258891695645,0.3792489180341363,,,,,,,,,,,,,,,,,7,001,2021_Dec_01_1450,psychophysics_project,2021.2.3,59.82086106319763,
nonsalient,nogo,2nogo3.png,,,,,,,0,18,18,13,,,,,,,,,,,,,,,,,,,,,,,,,148.44655659492128,149.44928905495908,149.43247755500488,151.43787203694228,None,149.43247755500488,None,,,,,,,,,,,,,,,,,,7,001,2021_Dec_01_1450,psychophysics_project,2021.2.3,59.82086106319763,
salient,go,2gov1.png,,,,,,,0,19,19,6,,,,,,,,,,,,,,,,,,,,,,,,,152.45702851493843,153.45986177702434,153.4431791770039,None,space,153.4431791770039,152.45702851493843,0.445553574943915,,,,,,,,,,,,,,,,,7,001,2021_Dec_01_1450,psychophysics_project,2021.2.3,59.82086106319763,
,,,,,,,,,,,,,,,,,,,,,,,,,,,,,,,,,,,,,,,,,,,,,153.91094154003076,None,space,68.36166923004203,153.91094154003076,None,,,,,,,,,,,7,001,2021_Dec_01_1450,psychophysics_project,2021.2.3,59.82086106319763,
salient,,nonstrv3.png,nonst,rectangle,,,,,,,,,0,0,0,38,,,,,,,,,,,,,,,,,,,,,,,,,,,,,,,,,,,222.32712584699038,223.3297662199475,223.3132339370204,225.31833175197244,225.30160166695714,None,left,1.2996235030004755,225.30160166695714,None,7,001,2021_Dec_01_1450,psychophysics_project,2021.2.3,59.82086106319763,
nonsalient,,1nogo2.png,st,circle,,,,,,,,,0,1,1,2,,,,,,,,,,,,,,,,,,,,,,,,,,,,,,,,,,,226.63859558699187,227.6413573649479,227.6244682619581,229.63000115193427,229.63000115193427,None,right,0.8690938630606979,229.63000115193427,None,7,001,2021_Dec_01_1450,psychophysics_project,2021.2.3,59.82086106319763,
salient,,1nogov.png,st,circle,,,,,,,,,0,2,2,5,,,,,,,,,,,,,,,,,,,,,,,,,,,,,,,,,,,230.54901921993587,231.5518253799528,231.53499157202896,233.54027820995543,233.52358535502572,None,right,0.31819254998117685,233.52358535502572,None,7,001,2021_Dec_01_1450,psychophysics_project,2021.2.3,59.82086106319763,
salient,,1nogov1.png,st,circle,,,,,,,,,0,3,3,6,,,,,,,,,,,,,,,,,,,,,,,,,,,,,,,,,,,233.8913280320121,234.89390941197053,234.87726769503206,236.88255769503303,236.86598961497657,None,left,0.340695631923154,236.86598961497657,None,7,001,2021_Dec_01_1450,psychophysics_project,2021.2.3,59.82086106319763,
salient,,1gov3.png,st,rectangle,,,,,,,,,0,4,4,18,,,,,,,,,,,,,,,,,,,,,,,,,,,,,,,,,,,237.25029520492535,238.2529576899251,238.23631050495896,240.24160735995974,240.24160735995974,None,right,0.33992209704592824,240.24160735995974,None,7,001,2021_Dec_01_1450,psychophysics_project,2021.2.3,59.82086106319763,
nonsalient,,1nogo4.png,st,circle,,,,,,,,,0,5,5,4,,,,,,,,,,,,,,,,,,,,,,,,,,,,,,,,,,,240.62607593496796,241.6285997199593,241.59524047200102,243.60190284694545,243.60190284694545,None,right,0.2724066929658875,243.60190284694545,None,7,001,2021_Dec_01_1450,psychophysics_project,2021.2.3,59.82086106319763,
salient,,nonstcv3.png,nonst,circle,,,,,,,,,0,6,6,28,,,,,,,,,,,,,,,,,,,,,,,,,,,,,,,,,,,243.91816854698118,244.92087555502076,244.88740906701423,246.89261049998458,246.89261049998458,None,left,0.341522483038716,246.89261049998458,None,7,001,2021_Dec_01_1450,psychophysics_project,2021.2.3,59.82086106319763,
nonsalient,,1nogo1.png,st,circle,,,,,,,,,0,7,7,1,,,,,,,,,,,,,,,,,,,,,,,,,,,,,,,,,,,247.2770205650013,248.2797244619578,248.26297984202392,250.26855500496458,250.26855500496458,None,left,0.26323658297769725,250.26855500496458,None,7,001,2021_Dec_01_1450,psychophysics_project,2021.2.3,59.82086106319763,
salient,,nonstrv2.png,nonst,rectangle,,,,,,,,,0,8,8,37,,,,,,,,,,,,,,,,,,,,,,,,,,,,,,,,,,,250.5691177699482,251.5720629999414,251.55510864197277,253.56041107699275,253.54389848199207,None,right,0.27886747696902603,253.54389848199207,None,7,001,2021_Dec_01_1450,psychophysics_project,2021.2.3,59.82086106319763,
nonsalient,,nonstc4.png,nonst,circle,,,,,,,,,0,9,9,24,,,,,,,,,,,,,,,,,,,,,,,,,,,,,,,,,,,253.8612757199444,254.863996900036,254.84726132499054,256.85259300202597,256.85259300202597,None,left,0.7033869629958645,256.85259300202597,None,7,001,2021_Dec_01_1450,psychophysics_project,2021.2.3,59.82086106319763,
nonsalient,,nonstr4.png,nonst,rectangle,,,,,,,,,0,10,10,34,,,,,,,,,,,,,,,,,,,,,,,,,,,,,,,,,,,257.6035470670322,258.6067891450366,258.59002292493824,260.59472648997325,260.59472648997325,None,left,0.28506680799182504,260.59472648997325,None,7,001,2021_Dec_01_1450,psychophysics_project,2021.2.3,59.82086106319763,
nonsalient,,1go1.png,st,rectangle,,,,,,,,,0,11,11,11,,,,,,,,,,,,,,,,,,,,,,,,,,,,,,,,,,,260.9288845289266,261.9328764650272,261.9159730520332,263.921389631927,263.921389631927,None,right,0.2954022749327123,263.921389631927,None,7,001,2021_Dec_01_1450,psychophysics_project,2021.2.3,59.82086106319763,
salient,,1nogov3.png,st,circle,,,,,,,,,0,12,12,8,,,,,,,,,,,,,,,,,,,,,,,,,,,,,,,,,,,264.25559129496105,265.2583881369792,265.2415074199671,267.24694943998475,267.2301393050002,None,left,0.3344271349487826,267.2301393050002,None,7,001,2021_Dec_01_1450,psychophysics_project,2021.2.3,59.82086106319763,
nonsalient,,1nogo.png,st,circle,,,,,,,,,0,13,13,0,,,,,,,,,,,,,,,,,,,,,,,,,,,,,,,,,,,267.6148381999228,268.61732212500647,268.5839155019494,270.5893601300195,270.5893601300195,None,right,0.27303015999495983,270.5893601300195,None,7,001,2021_Dec_01_1450,psychophysics_project,2021.2.3,59.82086106319763,
nonsalient,,nonstr1.png,nonst,rectangle,,,,,,,,,0,14,14,31,,,,,,,,,,,,,,,,,,,,,,,,,,,,,,,,,,,270.90700047498103,271.90945255500264,271.8760469999397,273.8814718070207,273.8814718070207,None,left,0.26172504003625363,273.8814718070207,None,7,001,2021_Dec_01_1450,psychophysics_project,2021.2.3,59.82086106319763,
nonsalient,,nonstr.png,nonst,rectangle,,,,,,,,,0,15,15,30,,,,,,,,,,,,,,,,,,,,,,,,,,,,,,,,,,,274.18221129500307,275.1849223820027,275.1683583749691,277.173520655022,277.15671648003627,None,right,0.27197294996585697,277.15671648003627,None,7,001,2021_Dec_01_1450,psychophysics_project,2021.2.3,59.82086106319763,
salient,,1gov4.png,st,rectangle,,,,,,,,,0,16,16,19,,,,,,,,,,,,,,,,,,,,,,,,,,,,,,,,,,,277.4740994499298,278.47683161497116,278.4436893169768,280.4489540850045,280.4489540850045,None,right,0.2736710400786251,280.4489540850045,None,7,001,2021_Dec_01_1450,psychophysics_project,2021.2.3,59.82086106319763,
salient,,1gov1.png,st,rectangle,,,,,,,,,0,17,17,16,,,,,,,,,,,,,,,,,,,,,,,,,,,,,,,,,,,280.7665920369327,281.7692193519324,281.73570759699214,283.74098216497805,283.74098216497805,None,right,0.2463729151058942,283.74098216497805,None,7,001,2021_Dec_01_1450,psychophysics_project,2021.2.3,59.82086106319763,
nonsalient,,nonstc3.png,nonst,circle,,,,,,,,,0,18,18,23,,,,,,,,,,,,,,,,,,,,,,,,,,,,,,,,,,,284.02542847499717,285.0279235999333,285.0110275519546,287.01639117195737,287.01639117195737,None,right,0.27387371996883303,287.01639117195737,None,7,001,2021_Dec_01_1450,psychophysics_project,2021.2.3,59.82086106319763,
salient,,1nogov4.png,st,circle,,,,,,,,,0,19,19,9,,,,,,,,,,,,,,,,,,,,,,,,,,,,,,,,,,,287.3339728770079,288.3367091800319,288.3031770220259,290.30860314995516,290.30860314995516,None,right,0.27849284501280636,290.30860314995516,None,7,001,2021_Dec_01_1450,psychophysics_project,2021.2.3,59.82086106319763,
nonsalient,,nonstr2.png,nonst,rectangle,,,,,,,,,0,20,20,32,,,,,,,,,,,,,,,,,,,,,,,,,,,,,,,,,,,290.62626891501714,291.62886675202753,291.61211252002977,293.6175268100342,293.600852255011,None,left,0.2652527630561963,293.600852255011,None,7,001,2021_Dec_01_1450,psychophysics_project,2021.2.3,59.82086106319763,
salient,,nonstcv.png,nonst,circle,,,,,,,,,0,21,21,25,,,,,,,,,,,,,,,,,,,,,,,,,,,,,,,,,,,293.9016777619254,294.90419062494766,294.88762431696523,296.8930174499983,296.8930174499983,None,right,0.24868482700549066,296.8930174499983,None,7,001,2021_Dec_01_1450,psychophysics_project,2021.2.3,59.82086106319763,
salient,,nonstrv.png,nonst,rectangle,,,,,,,,,0,22,22,35,,,,,,,,,,,,,,,,,,,,,,,,,,,,,,,,,,,297.17702777998056,298.17969652696047,298.1629361999221,300.1682241719682,300.1682241719682,None,left,0.2637377770151943,300.1682241719682,None,7,001,2021_Dec_01_1450,psychophysics_project,2021.2.3,59.82086106319763,
salient,,1gov.png,st,rectangle,,,,,,,,,0,23,23,15,,,,,,,,,,,,,,,,,,,,,,,,,,,,,,,,,,,300.46905602992047,301.4717651619576,301.4550723870052,303.46051646000706,303.4437546499539,None,left,0.27203353494405746,303.4437546499539,None,7,001,2021_Dec_01_1450,psychophysics_project,2021.2.3,59.82086106319763,
nonsalient,,nonstc.png,nonst,circle,,,,,,,,,0,24,24,20,,,,,,,,,,,,,,,,,,,,,,,,,,,,,,,,,,,303.76122864498757,304.7639220949495,304.7305233819643,306.735897431965,306.735897431965,None,right,0.43549204198643565,306.735897431965,None,7,001,2021_Dec_01_1450,psychophysics_project,2021.2.3,59.82086106319763,
nonsalient,,nonstc1.png,nonst,circle,,,,,,,,,0,25,25,21,,,,,,,,,,,,,,,,,,,,,,,,,,,,,,,,,,,307.22043521201704,308.22330587997567,308.1893396299565,310.1948975499254,310.1948975499254,None,left,0.2479170620208606,310.1948975499254,None,7,001,2021_Dec_01_1450,psychophysics_project,2021.2.3,59.82086106319763,
salient,,nonstrv1.png,nonst,rectangle,,,,,,,,,0,26,26,36,,,,,,,,,,,,,,,,,,,,,,,,,,,,,,,,,,,310.4792040620232,311.481795669999,311.4650912799407,313.4703613099409,313.4703613099409,None,left,0.24500738992355764,313.4703613099409,None,7,001,2021_Dec_01_1450,psychophysics_project,2021.2.3,59.82086106319763,
salient,,1gov2.png,st,rectangle,,,,,,,,,0,27,27,17,,,,,,,,,,,,,,,,,,,,,,,,,,,,,,,,,,,313.75456445501186,314.75719390495215,314.74060981196817,316.74601639201865,316.72921500203665,None,right,0.35895224497653544,316.72921500203665,None,7,001,2021_Dec_01_1450,psychophysics_project,2021.2.3,59.82086106319763,
nonsalient,,1go2.png,st,rectangle,,,,,,,,,0,28,28,12,,,,,,,,,,,,,,,,,,,,,,,,,,,,,,,,,,,317.130507785012,318.1330376249971,318.1161356619559,320.12168104492594,320.12168104492594,None,right,0.2885569999925792,320.12168104492594,None,7,001,2021_Dec_01_1450,psychophysics_project,2021.2.3,59.82086106319763,
nonsalient,,1go3.png,st,rectangle,,,,,,,,,0,29,29,13,,,,,,,,,,,,,,,,,,,,,,,,,,,,,,,,,,,320.4559012920363,321.45855775498785,321.44201042992063,323.4470739850076,323.4304539449513,None,right,0.23686060996260494,323.4304539449513,None,7,001,2021_Dec_01_1450,psychophysics_project,2021.2.3,59.82086106319763,
nonsalient,,nonstr3.png,nonst,rectangle,,,,,,,,,0,30,30,33,,,,,,,,,,,,,,,,,,,,,,,,,,,,,,,,,,,323.7145379399881,324.71714414993767,324.70043789502233,326.7059371570358,326.6891980370274,None,right,0.3240075750509277,326.6891980370274,None,7,001,2021_Dec_01_1450,psychophysics_project,2021.2.3,59.82086106319763,
salient,,nonstcv4.png,nonst,circle,,,,,,,,,0,31,31,29,,,,,,,,,,,,,,,,,,,,,,,,,,,,,,,,,,,327.0567592550069,328.0594136000145,328.0426841370063,330.04824277199805,330.03134099196177,None,left,0.2667849150020629,330.03134099196177,None,7,001,2021_Dec_01_1450,psychophysics_project,2021.2.3,59.82086106319763,
salient,,nonstrv4.png,nonst,rectangle,,,,,,,,,0,32,32,39,,,,,,,,,,,,,,,,,,,,,,,,,,,,,,,,,,,330.3323721999768,331.3348393649794,331.3183811469935,333.32356627995614,333.32356627995614,None,left,0.3011470119236037,333.32356627995614,None,7,001,2021_Dec_01_1450,psychophysics_project,2021.2.3,59.82086106319763,
salient,,1nogov2.png,st,circle,,,,,,,,,0,33,33,7,,,,,,,,,,,,,,,,,,,,,,,,,,,,,,,,,,,333.6744147349382,334.67722012195736,334.6603928449331,336.66599446500186,336.6491625600029,None,right,0.28854328498709947,336.6491625600029,None,7,001,2021_Dec_01_1450,psychophysics_project,2021.2.3,59.82086106319763,
nonsalient,,1go4.png,st,rectangle,,,,,,,,,0,34,34,14,,,,,,,,,,,,,,,,,,,,,,,,,,,,,,,,,,,336.98327239695936,337.9861042170087,337.9692951949546,339.97465914697386,339.97465914697386,None,left,0.29075935995206237,339.97465914697386,None,7,001,2021_Dec_01_1450,psychophysics_project,2021.2.3,59.82086106319763,
nonsalient,,nonstc2.png,nonst,circle,,,,,,,,,0,35,35,22,,,,,,,,,,,,,,,,,,,,,,,,,,,,,,,,,,,340.30912216496654,341.3116017249413,341.2780127399601,343.2833970650099,343.2833970650099,None,right,0.26872842689044774,343.2833970650099,None,7,001,2021_Dec_01_1450,psychophysics_project,2021.2.3,59.82086106319763,
nonsalient,,1nogo3.png,st,circle,,,,,,,,,0,36,36,3,,,,,,,,,,,,,,,,,,,,,,,,,,,,,,,,,,,343.6008160569472,344.60358898702543,344.586920851958,346.5923590869643,346.5757278900128,None,right,0.2802061450202018,346.5757278900128,None,7,001,2021_Dec_01_1450,psychophysics_project,2021.2.3,59.82086106319763,
salient,,nonstcv1.png,nonst,circle,,,,,,,,,0,37,37,26,,,,,,,,,,,,,,,,,,,,,,,,,,,,,,,,,,,346.89322997501586,347.8957381800283,347.87910260702483,349.88457451201975,349.88457451201975,None,right,0.2553400800097734,349.88457451201975,None,7,001,2021_Dec_01_1450,psychophysics_project,2021.2.3,59.82086106319763,
nonsalient,,1go.png,st,rectangle,,,,,,,,,0,38,38,10,,,,,,,,,,,,,,,,,,,,,,,,,,,,,,,,,,,350.1852218520362,351.1878560699988,351.15460419200826,353.1598573300289,353.1598573300289,None,left,0.29854428803082556,353.1598573300289,None,7,001,2021_Dec_01_1450,psychophysics_project,2021.2.3,59.82086106319763,
salient,,nonstcv2.png,nonst,circle,,,,,,,,,0,39,39,27,,,,,,,,,,,,,,,,,,,,,,,,,,,,,,,,,,,353.49401435500477,354.4969438200351,354.4801482469775,356.48544795496855,356.48544795496855,None,left,0.28223799797706306,356.48544795496855,None,7,001,2021_Dec_01_1450,psychophysics_project,2021.2.3,59.82086106319763,
